timestamp,timestamp_sample,ref_timestamp,ref_lat,ref_lon,x,y,z,delta_xy[0],delta_xy[1],delta_z,vx,vy,vz,z_deriv,delta_vxy[0],delta_vxy[1],delta_vz,ax,ay,az,heading,delta_heading,ref_alt,dist_bottom,eph,epv,evh,evv,vxy_max,vz_max,hagl_min,hagl_max,xy_valid,z_valid,v_xy_valid,v_z_valid,xy_reset_counter,z_reset_counter,vxy_reset_counter,vz_reset_counter,heading_reset_counter,xy_global,z_global,dist_bottom_valid,dist_bottom_sensor_bitfield
523347399,523346001,91277367,-3.8268153999999996,-49.6770943,8.3329315,-1.0915283,-1.6028963,-0.017734911,-0.00094671885,0.0,0.043732062,0.0010226326,-0.0054457914,-0.00052729563,-0.014139067,-0.017479504,0.04571215,0.11379406,-0.19304407,-0.51050854,0.25762886,0.0066018705,167.71822,0.1,0.32318273,0.39443618,0.13575575,0.10539505,inf,inf,inf,inf,1,1,1,1,2,0,2,1,8,1,1,1,0
523446334,523445211,91277367,-3.8268153999999996,-49.6770943,8.340699,-1.1037925,-1.6057876,-0.017734911,-0.00094671885,0.0,0.044012815,0.001282235,-0.006134676,-0.0039173393,-0.014139067,-0.017479504,0.04571215,-0.038217288,-0.26260835,0.021357192,0.25760543,0.0066018705,167.71822,0.1,0.33150396,0.39607936,0.14003189,0.106817394,inf,inf,inf,inf,1,1,1,1,2,0,2,1,8,1,1,1,0
523545889,523544422,91277367,-3.8268153999999996,-49.6770943,8.347648,-1.1156085,-1.6081812,-0.017734911,-0.00094671885,0.0,0.042386018,0.0032916649,-0.0047444166,-0.004417088,-0.014139067,-0.017479504,0.04571215,-0.18995075,0.18876348,0.31423584,0.2576876,0.0066018705,167.71822,0.1,0.32307965,0.39333612,0.13562708,0.10526667,inf,inf,inf,inf,1,1,1,1,2,0,2,1,8,1,1,1,0
523644798,523643632,91277367,-3.8268153999999996,-49.6770943,8.35392,-1.1282153,-1.6096331,-0.017734911,-0.00094671885,0.0,0.040155604,0.0043771267,-0.005654709,-0.006104109,-0.014139067,-0.017479504,0.04571215,-0.40203553,-0.13040301,0.017427051,0.25737,0.0066018705,167.71822,0.1,0.3313963,0.39751583,0.1400712,0.10696303,inf,inf,inf,inf,1,1,1,1,2,0,2,1,8,1,1,1,0
523743963,523742845,91277367,-3.8268153999999996,-49.6770943,8.360959,-1.1410791,-1.6135783,-0.017734911,-0.00094671885,0.0,0.042931493,0.0033542993,-0.014145547,-0.017635869,-0.014139067,-0.017479504,0.04571215,-0.41033396,0.084934965,-0.6965657,0.25723374,0.0066018705,167.71822,0.1,0.3230522,0.39475307,0.1355936,0.1054203,inf,inf,inf,inf,1,1,1,1,2,0,2,1,8,1,1,1,0
523847710,523846562,91277367,-3.8268153999999996,-49.6770943,8.368582,-1.1535189,-1.619596,-0.017734911,-0.00094671885,0.0,0.043500207,0.004409665,-0.012466511,-0.020647125,-0.014139067,-0.017479504,0.04571215,-0.57817376,-0.19541843,-1.3737359,0.25730297,0.0066018705,167.71822,0.1,0.33137256,0.396406,0.14001301,0.10684538,inf,inf,inf,inf,1,1,1,1,2,0,2,1,8,1,1,1,0
523946938,523945772,91277367,-3.8268153999999996,-49.6770943,8.375498,-1.1654335,-1.6243651,-0.017734911,-0.00094671885,0.0,0.042872243,0.0085120145,-0.011255583,-0.022433061,-0.014139067,-0.017479504,0.04571215,-0.5652189,0.535695,-1.5595969,0.2572571,0.0066018705,167.71822,0.1,0.32303163,0.39366895,0.1355215,0.10530858,inf,inf,inf,inf,1,1,1,1,2,0,2,1,8,1,1,1,0
524046443,524044990,91277367,-3.8268153999999996,-49.6770943,8.3818865,-1.1763625,-1.6284775,-0.017734911,-0.00094671885,0.0,0.03545883,0.0003770626,-0.020165598,-0.033246208,-0.014139067,-0.017479504,0.04571215,-2.0595512,0.15075614,0.83115846,0.25735924,0.0066018705,167.71822,0.1,0.33135548,0.39530283,0.14020374,0.106728196,inf,inf,inf,inf,1,1,1,1,2,0,2,1,8,1,1,1,0
524145517,524144191,91277367,-3.8268153999999996,-49.6770943,8.387599,-1.1858795,-1.6334519,-0.017734911,-0.00094671885,0.0,0.040444814,-0.0041525518,-0.029651295,-0.04526433,-0.014139067,-0.017479504,0.04571215,-0.47672468,-0.32920063,-10.161358,0.2571829,0.0066018705,167.71822,0.1,0.32294777,0.39507765,0.13557348,0.10544728,inf,inf,inf,inf,1,1,1,1,2,0,2,1,8,1,1,1,0
524244589,524243402,91277367,-3.8268153999999996,-49.6770943,8.392862,-1.1949495,-1.6401777,-0.017734911,-0.00094671885,0.0,0.034367222,-0.0008855606,-0.044496898,-0.0637487,-0.014139067,-0.017479504,0.04571215,-2.49634,-0.41720593,-5.7183304,0.25715664,0.0066018705,167.71822,0.1,0.3312682,0.3967318,0.13996315,0.10687342,inf,inf,inf,inf,1,1,1,1,2,0,2,1,8,1,1,1,0
524343690,524342613,91277367,-3.8268153999999996,-49.6770943,8.397294,-1.2038736,-1.6474338,-0.017734911,-0.00094671885,0.0,0.03679257,0.014386077,-0.013541157,-0.036503553,-0.014139067,-0.017479504,0.04571215,1.4491512,0.85721946,3.0625818,0.2571794,0.0066018705,167.71822,0.1,0.32294327,0.39398593,0.13555379,0.105334856,inf,inf,inf,inf,1,1,1,1,2,0,2,1,8,1,1,1,0
524443053,524441830,91277367,-3.8268153999999996,-49.6770943,8.401253,-1.2122278,-1.6541079,-0.017734911,-0.00094671885,0.0,0.03892958,0.013651149,0.0085464595,-0.016948035,-0.014139067,-0.017479504,0.04571215,-0.5471742,1.8215933,3.9273717,0.25746098,0.0066018705,167.71822,0.1,0.33126882,0.3956209,0.1399094,0.10675466,inf,inf,inf,inf,1,1,1,1,2,0,2,1,8,1,1,1,0
524546668,524545545,91277367,-3.8268153999999996,-49.6770943,8.404709,-1.2195717,-1.661881,-0.017734911,-0.00094671885,0.0,0.03337287,0.009340932,-0.012607537,-0.04108833,-0.014139067,-0.017479504,0.04571215,-0.3966353,0.5571104,4.096756,0.25708476,0.0066018705,167.71822,0.1,0.3228601,0.3953932,0.13555539,0.10547294,inf,inf,inf,inf,1,1,1,1,2,0,2,1,8,1,1,1,0
524646081,524644753,91277367,-3.8268153999999996,-49.6770943,8.40742,-1.2269993,-1.6668338,-0.017734911,-0.00094671885,0.0,0.04400615,0.006415865,-0.0171809,-0.04570421,-0.014139067,-0.017479504,0.04571215,1.7265522,0.18519911,1.1922276,0.25719926,0.0066018705,167.71822,0.1,0.33118024,0.39705706,0.1400937,0.10690139,inf,inf,inf,inf,1,1,1,1,2,0,2,1,8,1,1,1,0
524745389,524743963,91277367,-3.8268153999999996,-49.6770943,8.4107065,-1.2343076,-1.6734228,-0.017734911,-0.00094671885,0.0,0.019581296,0.023545295,-0.019610994,-0.049569815,-0.014139067,-0.017479504,0.04571215,0.88741714,-2.8524303,-0.4828377,0.25679484,0.0066018705,167.71822,0.1,0.32279393,0.39429536,0.13550484,0.10534837,inf,inf,inf,inf,1,1,1,1,2,0,2,1,8,1,1,1,0
524844323,524843174,91277367,-3.8268153999999996,-49.6770943,8.414897,-1.2426896,-1.6797755,-0.017734911,-0.00094671885,0.0,0.022429826,0.023465397,-0.01024356,-0.041199163,-0.014139067,-0.017479504,0.04571215,-3.9523351,5.5403633,8.92141,0.25664595,0.0066018705,167.71822,0.1,0.331112,0.3959394,0.14001499,0.10677061,inf,inf,inf,inf,1,1,1,1,2,0,2,1,8,1,1,1,0
524943673,524942389,91277367,-3.8268153999999996,-49.6770943,8.418997,-1.2507876,-1.6870929,-0.017734911,-0.00094671885,0.0,0.04586729,0.005212349,-0.051590893,-0.08444891,-0.014139067,-0.017479504,0.04571215,0.26786998,-1.6881343,-9.490244,0.25645816,0.0066018705,167.71822,0.1,0.32282007,0.39321104,0.13551676,0.105236545,inf,inf,inf,inf,1,1,1,1,2,0,2,1,8,1,1,1,0
525047232,525046104,91277367,-3.8268153999999996,-49.6770943,8.42324,-1.2584212,-1.6929,-0.017734911,-0.00094671885,0.0,0.038585,0.01970488,-0.043127786,-0.07616624,-0.014139067,-0.017479504,0.04571215,1.6185333,-0.33888873,-10.771397,0.25689283,0.0066018705,167.71822,0.10109532,0.33114278,0.39738142,0.13986917,0.10693191,inf,inf,inf,inf,1,1,1,1,2,0,2,1,8,1,1,1,0
525146443,525145314,91277367,-3.8268153999999996,-49.6770943,8.426559,-1.2650679,-1.6998161,-0.017734911,-0.00094671885,0.0,0.029178083,0.013951242,-0.010593138,-0.044729885,-0.014139067,-0.017479504,0.04571215,0.52675635,1.9503492,3.5685897,0.25623015,0.0066018705,167.71822,0.108011484,0.32284674,0.39461786,0.13562664,0.10538964,inf,inf,inf,inf,1,1,1,1,2,0,2,1,8,1,1,1,0
525245865,525244525,91277367,-3.8268153999999996,-49.6770943,8.42919,-1.2704436,-1.7062733,-0.017734911,-0.00094671885,0.0,0.03102964,0.01257882,-0.0097635975,-0.044135436,-0.014139067,-0.017479504,0.04571215,1.9378895,-2.931428,-1.3276613,0.25651562,0.0066018705,167.71822,0.114468694,0.33117524,0.396264,0.14026025,0.10681397,inf,inf,inf,inf,1,1,1,1,2,0,2,1,8,1,1,1,0
525344878,525343735,91277367,-3.8268153999999996,-49.6770943,8.431228,-1.2751714,-1.712191,-0.017734911,-0.00094671885,0.0,0.017702576,0.033621177,-0.0019070903,-0.035843458,-0.014139067,-0.017479504,0.04571215,0.68029296,2.911029,14.561861,0.25608137,0.0066018705,167.71822,0.12038636,0.32286888,0.39352667,0.13611247,0.10527836,inf,inf,inf,inf,1,1,1,1,2,0,2,1,8,1,1,1,0
525444136,525442945,91277367,-3.8268153999999996,-49.6770943,8.432787,-1.2790189,-1.7178702,-0.017734911,-0.00094671885,0.0,0.01629777,0.018586874,-0.070048034,-0.103479885,-0.014139067,-0.017479504,0.04571215,-2.5631044,-0.085710034,-8.167134,0.25605547,0.0066018705,167.71822,0.12606561,0.33120275,0.39770532,0.14073823,0.106975585,inf,inf,inf,inf,1,1,1,1,2,0,2,1,8,1,1,1,0
525547899,525546665,91277367,-3.8268153999999996,-49.6770943,8.435339,-1.2824522,-1.7222654,-0.017734911,-0.00094671885,0.0,0.025210934,0.011382777,-0.065809354,-0.09717021,-0.014139067,-0.017479504,0.04571215,-1.3870531,-1.5901483,-10.903612,0.25597158,0.0066018705,167.71822,0.13046074,0.32286885,0.39494112,0.13637275,0.105432846,inf,inf,inf,inf,1,1,1,1,2,0,2,1,8,1,1,1,0
525647026,525645876,91277367,-3.8268153999999996,-49.6770943,8.438293,-1.2853965,-1.7265837,-0.017734911,-0.00094671885,0.0,0.026683962,0.024962815,-0.0065634046,-0.0358003,-0.014139067,-0.017479504,0.04571215,2.721873,-1.7066176,8.052277,0.25543565,0.0066018705,167.71822,0.1347791,0.33120906,0.3965979,0.14121568,0.106861316,inf,inf,inf,inf,1,1,1,1,2,0,2,1,8,1,1,1,0
525746450,525745098,91277367,-3.8268153999999996,-49.6770943,8.440242,-1.2874982,-1.7331853,-0.017734911,-0.00094671885,0.0,0.00744945,0.043953653,-0.042940043,-0.07224194,-0.014139067,-0.017479504,0.04571215,-0.5133458,-1.2052274,-1.5697521,0.2554658,0.0066018705,167.71822,0.14138067,0.32286826,0.39385086,0.13674459,0.10532282,inf,inf,inf,inf,1,1,1,1,2,0,2,1,8,1,1,1,0
525845844,525844296,91277367,-3.8268153999999996,-49.6770943,8.441514,-1.2886201,-1.7411839,-0.017734911,-0.00094671885,0.0,0.013915326,0.044355515,-0.02365418,-0.05452055,-0.014139067,-0.017479504,0.04571215,-2.4554842,5.3367033,-1.0632292,0.2557286,0.0066018705,167.71822,0.14937925,0.3312142,0.39548853,0.14179179,0.10674405,inf,inf,inf,inf,1,1,1,1,2,0,2,1,8,1,1,1,0
525944675,525943506,91277367,-3.8268153999999996,-49.6770943,8.442466,-1.2897694,-1.7481017,-0.017734911,-0.00094671885,0.0,0.026290003,0.027440356,-0.029839939,-0.06100635,-0.014139067,-0.017479504,0.04571215,-0.3174144,-0.42570013,7.0167685,0.25455517,0.0066018705,167.71822,0.15629709,0.32280955,0.39526543,0.13752028,0.10546455,inf,inf,inf,inf,1,1,1,1,2,0,2,1,8,1,1,1,0
526044001,526042716,91277367,-3.8268153999999996,-49.6770943,8.442954,-1.2917534,-1.7543418,-0.017734911,-0.00094671885,0.0,0.017722163,0.03769841,-0.06210847,-0.09282282,-0.014139067,-0.017479504,0.04571215,1.6590033,-2.1152923,-12.854456,0.255301,0.0066018705,167.71822,0.16253722,0.3311607,0.39692348,0.14222702,0.10689445,inf,inf,inf,inf,1,1,1,1,2,0,2,1,8,1,1,1,0
526138657,526137417,91277367,-3.8268153999999996,-49.6770943,8.443835,-1.293253,-1.7588782,-0.017734911,-0.00094671885,0.0,0.006906389,0.029490802,-0.03883086,-0.06738404,-0.014139067,-0.017479504,0.04571215,0.0260057,-1.9228109,1.8964692,0.2544583,0.0066018705,167.71822,0.1670736,0.322012,0.39350623,0.13737713,0.105158515,inf,inf,inf,inf,1,1,1,1,2,0,2,1,8,1,1,1,0
526247025,526245646,91277367,-3.8268153999999996,-49.6770943,8.445274,-1.2954248,-1.7633513,-0.017734911,-0.00094671885,0.0,0.021427363,0.034782,-0.00456613,-0.029916206,-0.014139067,-0.017479504,0.04571215,1.9857031,1.2525576,7.807566,0.25461861,0.0066018705,167.71822,0.1715467,0.33118287,0.39580664,0.14301267,0.106775776,inf,inf,inf,inf,1,1,1,1,2,0,2,1,8,1,1,1,0
526346584,526344857,91277367,-3.8268153999999996,-49.6770943,8.445732,-1.2966474,-1.7669653,-0.017734911,-0.00094671885,0.0,0.011656911,0.039334167,-0.031960282,-0.054202456,-0.014139067,-0.017479504,0.04571215,2.916441,-4.8848953,-0.46355832,0.25469548,0.0066018705,167.71822,0.17516065,0.32283387,0.39307684,0.13856052,0.10524356,inf,inf,inf,inf,1,1,1,1,2,0,2,1,8,1,1,1,0
526445240,526444067,91277367,-3.8268153999999996,-49.6770943,8.445666,-1.2975022,-1.7704836,-0.017734911,-0.00094671885,0.0,-0.007098732,0.062819794,-0.0063864444,-0.025842182,-0.014139067,-0.017479504,0.04571215,-0.08810887,3.974765,12.987067,0.2549692,0.0066018705,167.71822,0.17867899,0.33121094,0.3972483,0.14348647,0.10694017,inf,inf,inf,inf,1,1,1,1,2,0,2,1,8,1,1,1,0
526544468,526543281,91277367,-3.8268153999999996,-49.6770943,8.445822,-1.2987092,-1.7737951,-0.017734911,-0.00094671885,0.0,0.00340763,0.033956993,-0.07957712,-0.09629876,-0.014139067,-0.017479504,0.04571215,-3.8501353,-1.9680203,-3.6257136,0.2539771,0.0066018705,167.71822,0.1819905,0.32278958,0.3944847,0.13900886,0.10538546,inf,inf,inf,inf,1,1,1,1,2,0,2,1,8,1,1,1,0
526643678,526642488,91277367,-3.8268153999999996,-49.6770943,8.445781,-1.3008144,-1.7759136,-0.017734911,-0.00094671885,0.0,0.01428456,0.041293032,-0.067311004,-0.08046384,-0.014139067,-0.017479504,0.04571215,1.1237189,-3.8433962,-10.641887,0.25427392,0.0066018705,167.71822,0.18410897,0.331175,0.3961337,0.14373282,0.10681203,inf,inf,inf,inf,1,1,1,1,2,0,2,1,8,1,1,1,0
526747477,526746207,91277367,-3.8268153999999996,-49.6770943,8.444673,-1.3024983,-1.7759732,-0.017734911,-0.00094671885,0.0,0.0059358045,0.052419685,-0.05395106,-0.0613349,-0.014139067,-0.017479504,0.04571215,1.9652447,-0.9784382,-4.445631,0.25417298,0.0066018705,167.71822,0.18416858,0.3228119,0.39339492,0.1392785,0.10527656,inf,inf,inf,inf,1,1,1,1,2,0,2,1,8,1,1,1,0
526846773,526845418,91277367,-3.8268153999999996,-49.6770943,8.443043,-1.3040717,-1.7744517,-0.017734911,-0.00094671885,0.0,-0.0114859445,0.056672975,-0.04922424,-0.050219655,-0.014139067,-0.017479504,0.04571215,-0.9844051,1.9339552,0.7671322,0.25393793,0.0066018705,167.71822,0.18264711,0.33121264,0.3975739,0.1441605,0.10697478,inf,inf,inf,inf,1,1,1,1,2,0,2,1,8,1,1,1,0
526945966,526944627,91277367,-3.8268153999999996,-49.6770943,8.4419155,-1.3043395,-1.775208,-0.017734911,-0.00094671885,0.0,-0.0046250727,0.040948465,-0.06558182,-0.06328669,-0.014139067,-0.017479504,0.04571215,-3.422346,-2.518493,-10.56668,0.25353995,0.0066018705,167.71822,0.18340337,0.32277578,0.39480972,0.13952672,0.10542095,inf,inf,inf,inf,1,1,1,1,2,0,2,1,8,1,1,1,0
527045027,527043837,91277367,-3.8268153999999996,-49.6770943,8.440975,-1.3036283,-1.7758223,-0.017734911,-0.00094671885,0.0,0.007494946,0.057031963,-0.01385946,-0.008778255,-0.014139067,-0.017479504,0.04571215,0.025411686,0.8591777,8.287236,0.25321087,0.0066018705,167.71822,0.18401766,0.33118314,0.3964601,0.14449517,0.10684738,inf,inf,inf,inf,1,1,1,1,2,0,2,1,8,1,1,1,0
527144173,527143048,91277367,-3.8268153999999996,-49.6770943,8.440085,-1.3039244,-1.7761987,-0.017734911,-0.00094671885,0.0,0.0026016738,0.057707816,-0.04592575,-0.038280807,-0.014139067,-0.017479504,0.04571215,-0.8569685,1.2773266,2.7186768,0.25334296,0.0066018705,167.71822,0.18439412,0.3227516,0.39370546,0.1397659,0.10529612,inf,inf,inf,inf,1,1,1,1,2,0,2,1,8,1,1,1,0
527248057,527246767,91277367,-3.8268153999999996,-49.6770943,8.439281,-1.3057657,-1.7764531,-0.017734911,-0.00094671885,0.0,0.003293974,0.05509071,-0.057328347,-0.04715496,-0.014139067,-0.017479504,0.04571215,-2.6237535,1.9002297,-2.230146,0.253294,0.0066018705,167.71822,0.18464851,0.33116877,0.39533606,0.14451383,0.10671591,inf,inf,inf,inf,1,1,1,1,2,0,2,1,8,1,1,1,0
527347320,527345977,91277367,-3.8268153999999996,-49.6770943,8.438689,-1.30867,-1.7758332,-0.017734911,-0.00094671885,0.0,0.016940875,0.040263377,-0.03801608,-0.024772733,-0.014139067,-0.017479504,0.04571215,1.000291,0.6526999,-1.97262,0.25304016,0.0066018705,167.71822,0.18402863,0.32279286,0.39511734,0.13982013,0.10545124,inf,inf,inf,inf,1,1,1,1,2,0,2,1,8,1,1,1,0
527446571,527445188,91277367,-3.8268153999999996,-49.6770943,8.43818,-1.3119988,-1.7753445,-0.017734911,-0.00094671885,0.0,0.0069073867,0.043234967,-0.04010017,-0.024379639,-0.014139067,-0.017479504,0.04571215,3.5379086,-3.9167905,-11.958351,0.25313732,0.0066018705,167.71822,0.18353987,0.33122584,0.39677775,0.1447324,0.10688192,inf,inf,inf,inf,1,1,1,1,2,0,2,1,8,1,1,1,0
527545543,527544398,91277367,-3.8268153999999996,-49.6770943,8.438465,-1.3140075,-1.7747846,-0.017734911,-0.00094671885,0.0,-0.008628281,0.065290034,0.014372957,0.032367587,-0.014139067,-0.017479504,0.04571215,0.976018,3.945856,10.266603,0.2536024,0.0066018705,167.71822,0.18297994,0.32283378,0.39402148,0.14007996,0.10534186,inf,inf,inf,inf,1,1,1,1,2,0,2,1,8,1,1,1,0
527644938,527643608,91277367,-3.8268153999999996,-49.6770943,8.439123,-1.314537,-1.7734373,-0.017734911,-0.00094671885,0.0,-0.0065058917,0.057798922,0.0057945936,0.026164094,-0.014139067,-0.017479504,0.04571215,-0.4964708,4.928394,15.6969185,0.25317198,0.0066018705,167.71822,0.18163264,0.33128068,0.395663,0.14507614,0.10676508,inf,inf,inf,inf,1,1,1,1,2,0,2,1,8,1,1,1,0
527743956,527742818,91277367,-3.8268153999999996,-49.6770943,8.439614,-1.3157648,-1.7734783,-0.017734911,-0.00094671885,0.0,-0.0013111414,0.0575102,-0.020783685,0.0004927643,-0.014139067,-0.017479504,0.04571215,0.2512071,3.2007453,5.08758,0.25313196,0.0066018705,167.71822,0.18167365,0.3228892,0.39544097,0.14010692,0.10549825,inf,inf,inf,inf,1,1,1,1,2,0,2,1,8,1,1,1,0
527847925,527846540,91277367,-3.8268153999999996,-49.6770943,8.440177,-1.3170968,-1.7738674,-0.017734911,-0.00094671885,0.0,-0.005773678,0.03412554,-0.037137426,-0.015386298,-0.014139067,-0.017479504,0.04571215,-1.421431,-3.9151196,-3.793157,0.25259408,0.0066018705,167.71822,0.18206275,0.3313491,0.3971038,0.14493701,0.10692915,inf,inf,inf,inf,1,1,1,1,2,0,2,1,8,1,1,1,0
527947216,527945751,91277367,-3.8268153999999996,-49.6770943,8.439789,-1.3194151,-1.7752247,-0.017734911,-0.00094671885,0.0,-5.585332e-05,0.04269511,-0.07039169,-0.04933101,-0.014139067,-0.017479504,0.04571215,-1.2771928,-0.7769591,-15.302231,0.2523692,0.0066018705,167.71822,0.18342006,0.32296008,0.3943465,0.14006525,0.10538903,inf,inf,inf,inf,1,1,1,1,2,0,2,1,8,1,1,1,0
528046288,528044958,91277367,-3.8268153999999996,-49.6770943,8.438646,-1.3219727,-1.7762235,-0.017734911,-0.00094671885,0.0,-0.0006621434,0.05016425,-0.020997122,-0.00027670915,-0.014139067,-0.017479504,0.04571215,0.7694936,0.495945,6.9344273,0.25254488,0.0066018705,167.71822,0.18441892,0.331432,0.39599034,0.1449771,0.106812894,inf,inf,inf,inf,1,1,1,1,2,0,2,1,8,1,1,1,0
528145443,528144168,91277367,-3.8268153999999996,-49.6770943,8.438147,-1.3249298,-1.7762998,-0.017734911,-0.00094671885,0.0,0.0038304285,0.043863576,-0.026964411,-0.0056200596,-0.014139067,-0.017479504,0.04571215,0.7357127,0.10479695,0.20527089,0.25236273,0.0066018705,167.71822,0.18449521,0.32302305,0.393259,0.14001723,0.10527855,inf,inf,inf,inf,1,1,1,1,2,0,2,1,8,1,1,1,0
528244518,528243388,91277367,-3.8268153999999996,-49.6770943,8.438232,-1.3281546,-1.7758354,-0.017734911,-0.00094671885,0.0,0.002170187,0.04386675,-0.023333047,-0.0010644933,-0.014139067,-0.017479504,0.04571215,0.34644297,1.8787717,2.6191707,0.25300843,0.0066018705,167.71822,0.18403077,0.33150318,0.39743015,0.1448385,0.106975645,inf,inf,inf,inf,1,1,1,1,2,0,2,1,8,1,1,1,0
528343716,528342593,91277367,-3.8268153999999996,-49.6770943,8.437384,-1.3310206,-1.7750312,-0.017734911,-0.00094671885,0.0,0.0069689415,0.034197025,-0.030200785,-0.0067169154,-0.014139067,-0.017479504,0.04571215,-0.19213079,-0.847052,0.22042821,0.25520453,0.0066018705,167.71822,0.18322659,0.32310906,0.39467198,0.13995358,0.105433576,inf,inf,inf,inf,1,1,1,1,2,0,2,1,8,1,1,1,0
528447655,528446308,91277367,-3.8268153999999996,-49.6770943,8.435723,-1.3337779,-1.7747933,-0.017734911,-0.00094671885,0.0,0.0036244038,0.029267097,-0.022307621,0.0022669227,-0.014139067,-0.017479504,0.04571215,-0.16601059,2.5341454,8.331796,0.25857174,0.0066018705,167.71822,0.18298864,0.33159906,0.39632663,0.1446716,0.10686179,inf,inf,inf,inf,1,1,1,1,2,0,2,1,8,1,1,1,0
528547064,528545518,91277367,-3.8268153999999996,-49.6770943,8.4339905,-1.3364267,-1.7727566,-0.017734911,-0.00094671885,0.0,-0.0018713274,0.025577592,-0.05476375,-0.027397979,-0.014139067,-0.017479504,0.04571215,-1.2881743,-0.062150236,0.75259036,0.2591895,0.0066018705,167.71822,0.18095195,0.3231976,0.39357713,0.13965133,0.10532168,inf,inf,inf,inf,1,1,1,1,2,0,2,1,8,1,1,1,0
528646005,528644728,91277367,-3.8268153999999996,-49.6770943,8.432137,-1.3380172,-1.7722517,-0.017734911,-0.00094671885,0.0,0.0016283431,0.019273093,-0.09094591,-0.06323662,-0.014139067,-0.017479504,0.04571215,0.9568167,-4.5359664,-22.448824,0.26355025,0.0066018705,167.71822,0.1804471,0.331691,0.39521277,0.14452513,0.10674371,inf,inf,inf,inf,1,1,1,1,2,0,2,1,8,1,1,1,0
528745188,528743946,91277367,-3.8268153999999996,-49.6770943,8.429972,-1.3411758,-1.7738378,-0.017734911,-0.00094671885,0.0,-0.0030968664,0.024611635,-0.008019488,0.018069806,-0.014139067,-0.017479504,0.04571215,1.3101248,-0.14482729,4.0326095,0.26847118,0.0066018705,167.71822,0.18203318,0.3232914,0.39499754,0.1395856,0.10547751,inf,inf,inf,inf,1,1,1,1,2,0,2,1,8,1,1,1,0
528844292,528843148,91277367,-3.8268153999999996,-49.6770943,8.426851,-1.3460324,-1.7788554,-0.017734911,-0.00094671885,0.0,-0.0216986,0.008582039,-0.086736344,-0.06430219,-0.014139067,-0.017479504,0.04571215,0.03751162,0.88356555,-9.689876,0.27364516,0.0066018705,167.71822,0.18705082,0.33178902,0.39665452,0.14450924,0.10690476,inf,inf,inf,inf,1,1,1,1,2,0,2,1,8,1,1,1,0
528943781,528942358,91277367,-3.8268153999999996,-49.6770943,8.422778,-1.3525878,-1.78682,-0.017734911,-0.00094671885,0.0,-0.037369434,-0.01849956,-0.02040838,-0.002786392,-0.014139067,-0.017479504,0.04571215,-0.692911,0.7471876,20.378353,0.27745566,0.0066018705,167.71822,0.19501543,0.32337573,0.39391235,0.13938339,0.10536421,inf,inf,inf,inf,1,1,1,1,2,0,2,1,8,1,1,1,0
529047744,529046078,91277367,-3.8268153999999996,-49.6770943,8.417807,-1.3613673,-1.7982364,-0.017734911,-0.00094671885,0.0,-0.047589175,-0.045436826,-0.103986055,-0.091304444,-0.014139067,-0.017479504,0.04571215,-1.0654105,0.09992709,8.349094,0.2778879,0.0066018705,167.71822,0.20643175,0.3318802,0.3955502,0.14412014,0.10678311,inf,inf,inf,inf,1,1,1,1,2,0,2,1,8,1,1,1,0
529146635,529145288,91277367,-3.8268153999999996,-49.6770943,8.411488,-1.371077,-1.817477,-0.017734911,-0.00094671885,0.0,-0.062342964,-0.064107746,-0.26120493,-0.2525681,-0.014139067,-0.017479504,0.04571215,-1.8343736,-0.89107686,-5.704418,0.28098005,0.0066018705,167.71822,0.22567236,0.3234547,0.39532292,0.13941741,0.105509,inf,inf,inf,inf,1,1,1,1,2,0,2,1,8,1,1,1,0
529245677,529244498,91277367,-3.8268153999999996,-49.6770943,8.404175,-1.3815929,-1.8510444,-0.017734911,-0.00094671885,0.0,-0.06299386,-0.08016741,-0.39307436,-0.38982102,-0.014139067,-0.017479504,0.04571215,-0.9368625,2.1331732,-7.2006435,0.28466666,0.0066018705,167.71822,0.2592398,0.33196837,0.3969816,0.14439534,0.10693539,inf,inf,inf,inf,1,1,1,1,2,0,2,1,8,1,1,1,0
529344848,529343707,91277367,-3.8268153999999996,-49.6770943,8.399049,-1.3922089,-1.8959074,-0.017734911,-0.00094671885,0.0,-0.07596211,-0.09562293,-0.4858519,-0.4852212,-0.014139067,-0.017479504,0.04571215,-0.1407017,0.7410345,3.6913378,0.28185505,0.0066018705,167.71822,0.30410278,0.3234892,0.39423007,0.13988394,0.1053934,inf,inf,inf,inf,1,1,1,1,2,0,2,1,8,1,1,1,0
529444052,529442918,91277367,-3.8268153999999996,-49.6770943,8.3953495,-1.4028771,-1.9524354,-0.017734911,-0.00094671885,0.0,-0.086963095,-0.100249685,-0.65927184,-0.6581944,-0.014139067,-0.017479504,0.04571215,0.21594663,0.28812605,4.273129,0.2788357,0.0066018705,167.71822,0.36063075,0.33202934,0.3958697,0.14491425,0.10681537,inf,inf,inf,inf,1,1,1,1,2,0,2,1,8,1,1,1,0
529548106,529546637,91277367,-3.8268153999999996,-49.6770943,8.385623,-1.4110821,-2.027132,-0.017734911,-0.00094671885,0.0,-0.11329509,-0.113929056,-0.81541175,-0.81107485,-0.014139067,-0.017479504,0.04571215,0.23229147,-0.13987781,5.4549737,0.27807322,0.0066018705,167.71822,0.4353274,0.32343736,0.39563254,0.14030907,0.105529636,inf,inf,inf,inf,1,1,1,1,2,0,2,1,8,1,1,1,0
529647197,529645847,91277367,-3.8268153999999996,-49.6770943,8.370382,-1.4158814,-2.108275,-0.017734911,-0.00094671885,0.0,-0.12851337,-0.13062136,-0.92125034,-0.9113438,-0.014139067,-0.017479504,0.04571215,0.063686624,-2.3957992,3.9216359,0.27475184,0.0066018705,167.71822,0.5164703,0.33199397,0.39729246,0.14542322,0.10695872,inf,inf,inf,inf,1,1,1,1,2,0,2,1,8,1,1,1,0
529746188,529745057,91277367,-3.8268153999999996,-49.6770943,8.353727,-1.421881,-2.1935334,-0.017734911,-0.00094671885,0.0,-0.14297113,-0.12624133,-1.0301899,-1.0100669,-0.014139067,-0.017479504,0.04571215,-0.7938509,1.1412829,-9.696419,0.27162114,0.0066018705,167.71822,0.6017288,0.32342938,0.39454114,0.1407959,0.10541849,inf,inf,inf,inf,1,1,1,1,2,0,2,1,8,1,1,1,0
529845395,529844266,91277367,-3.8268153999999996,-49.6770943,8.335947,-1.4286156,-2.2809062,-0.017734911,-0.00094671885,0.0,-0.14829063,-0.13357322,-1.0535096,-1.0219966,-0.014139067,-0.017479504,0.04571215,-0.013585109,1.3341423,-2.5648165,0.26834917,0.0066018705,167.71822,0.6891016,0.33200222,0.39619058,0.14560659,0.106844336,inf,inf,inf,inf,1,1,1,1,2,0,2,1,8,1,1,1,0
529944618,529943477,91277367,-3.8268153999999996,-49.6770943,8.324361,-1.4403319,-2.3696244,-0.017734911,-0.00094671885,0.0,-0.13786007,-0.14806795,-1.0343285,-0.9927934,-0.014139067,-0.017479504,0.04571215,0.41121346,-4.337823,1.3900125,0.26530987,0.0066018705,167.71822,0.77781975,0.32336932,0.39344946,0.140318,0.10529437,inf,inf,inf,inf,1,1,1,1,2,0,2,1,8,1,1,1,0
530044032,530042687,91277367,-3.8268153999999996,-49.6770943,8.320263,-1.4566929,-2.4545736,-0.017734911,-0.00094671885,0.0,-0.13094227,-0.13440384,-1.0340073,-0.97841626,-0.014139067,-0.017479504,0.04571215,0.11132574,0.4772052,12.2595005,0.26392058,0.0066018705,167.71822,0.862769,0.33192706,0.3976291,0.14497375,0.1069917,inf,inf,inf,inf,1,1,1,1,2,0,2,1,8,1,1,0,0
530148023,530146414,91277367,-3.8268153999999996,-49.6770943,8.314946,-1.4709253,-2.5427973,-0.017734911,-0.00094671885,0.0,-0.11959689,-0.11400123,-1.049125,-0.9782753,-0.014139067,-0.017479504,0.04571215,0.01434601,1.3664055,4.576514,0.2619273,0.0066018705,167.71822,0.9509927,0.32338563,0.39485997,0.13992734,0.105447195,inf,inf,inf,inf,1,1,1,1,2,0,2,1,8,1,1,0,0
530246980,530245616,91277367,-3.8268153999999996,-49.6770943,8.309889,-1.4805787,-2.6248965,-0.017734911,-0.00094671885,0.0,-0.110024,-0.080994256,-1.044837,-0.96111214,-0.014139067,-0.017479504,0.04571215,-0.33235532,-0.045968723,-6.9317484,0.25932446,0.0066018705,167.71822,1.0330919,0.3319318,0.39651072,0.14453211,0.10687322,inf,inf,inf,inf,1,1,1,1,2,0,2,1,8,1,1,0,0
530346007,530344826,91277367,-3.8268153999999996,-49.6770943,8.302459,-1.4844189,-2.7031524,-0.017734911,-0.00094671885,0.0,-0.09056233,-0.038299397,-1.0084606,-0.91103923,-0.014139067,-0.017479504,0.04571215,0.47548386,-0.9610298,4.484353,0.25617668,0.0066018705,167.71822,1.1113478,0.32335356,0.39376792,0.13953681,0.10533454,inf,inf,inf,inf,1,1,1,1,2,0,2,1,8,1,1,0,0
530445318,530444036,91277367,-3.8268153999999996,-49.6770943,8.294806,-1.483347,-2.7801049,-0.017734911,-0.00094671885,0.0,-0.064962015,0.004854205,-1.0327263,-0.9226794,-0.014139067,-0.017479504,0.04571215,-0.023333892,1.5932117,-3.6593907,0.25504205,0.0066018705,167.71822,1.1883003,0.3318818,0.39539966,0.14393091,0.10675443,inf,inf,inf,inf,1,1,1,1,2,0,2,1,8,1,1,0,0
530544726,530543246,91277367,-3.8268153999999996,-49.6770943,8.286069,-1.4838243,-2.8584342,-0.017734911,-0.00094671885,0.0,-0.035744205,0.031173162,-1.0436558,-0.92280674,-0.014139067,-0.017479504,0.04571215,-0.094669834,0.57722473,-5.901936,0.25657612,0.0066018705,167.71822,1.2666296,0.32323188,0.39517096,0.13882884,0.10547258,inf,inf,inf,inf,1,1,1,1,2,0,2,1,8,1,1,0,0
530643815,530642456,91277367,-3.8268153999999996,-49.6770943,8.276029,-1.4873627,-2.9409685,-0.017734911,-0.00094671885,0.0,-0.007820572,0.046681166,-1.0498532,-0.921691,-0.014139067,-0.017479504,0.04571215,0.4153887,-0.43975484,1.711429,0.25999624,0.0066018705,167.71822,1.3491639,0.33173662,0.39683172,0.14344396,0.10690184,inf,inf,inf,inf,1,1,1,1,2,0,2,1,8,1,1,0,0
530747639,530746175,91277367,-3.8268153999999996,-49.6770943,8.272469,-1.4913116,-3.0290852,-0.017734911,-0.00094671885,0.0,0.015923504,0.0631808,-1.0880076,-0.9506849,-0.014139067,-0.017479504,0.04571215,0.041451525,0.3774624,0.7385956,0.26425874,0.0066018705,167.71822,1.4372805,0.32317388,0.39408857,0.1385509,0.105363965,inf,inf,inf,inf,1,1,1,1,2,0,2,1,8,1,1,0,0
530846593,530845389,91277367,-3.8268153999999996,-49.6770943,8.274019,-1.4956139,-3.1192317,-0.017734911,-0.00094671885,0.0,0.03669322,0.073368,-1.1116226,-0.9696522,-0.014139067,-0.017479504,0.04571215,0.3938575,0.07905508,6.1460223,0.26858738,0.0066018705,167.71822,1.5274271,0.3316691,0.39573038,0.14310807,0.1067878,inf,inf,inf,inf,1,1,1,1,2,0,2,1,8,1,1,0,0
530945900,530944595,91277367,-3.8268153999999996,-49.6770943,8.276602,-1.4939737,-3.2106836,-0.017734911,-0.00094671885,0.0,0.054415625,0.08358577,-1.168628,-1.0212765,-0.014139067,-0.017479504,0.04571215,-0.11625709,-0.40862653,-6.355647,0.27148598,0.0066018705,167.71822,1.618879,0.32306948,0.3929974,0.13834113,0.1052406,inf,inf,inf,inf,1,1,1,1,2,0,2,1,8,1,1,0,0
531044965,531043805,91277367,-3.8268153999999996,-49.6770943,8.279877,-1.4868253,-3.3017507,-0.017734911,-0.00094671885,0.0,0.06903509,0.090697,-1.1637336,-1.0093813,-0.014139067,-0.017479504,0.04571215,-0.3027726,-4.1420193,-4.9670496,0.27314556,0.0066018705,167.71822,1.709946,0.3315494,0.39716932,0.14290845,0.106937945,inf,inf,inf,inf,1,1,1,1,2,0,2,1,8,1,1,0,0
531144385,531143015,91277367,-3.8268153999999996,-49.6770943,8.283381,-1.4804503,-3.388597,-0.017734911,-0.00094671885,0.0,0.074826516,0.117834225,-1.1207436,-0.9572571,-0.014139067,-0.017479504,0.04571215,0.23253493,0.2461493,1.4331719,0.32089487,0.046308234,167.71822,1.7967924,0.32299796,0.3944013,0.1364978,0.10538181,inf,inf,inf,inf,1,1,1,1,2,0,2,1,9,1,1,0,0
531248083,531246735,91277367,-3.8268153999999996,-49.6770943,8.286477,-1.4751736,-3.4673862,-0.017734911,-0.00094671885,0.0,0.07901397,0.12065572,-0.9607192,-0.7861313,-0.014139067,-0.017479504,0.04571215,0.9106051,-0.6832862,-2.567414,0.31587905,0.046308234,167.71822,1.8755816,0.33135173,0.39604372,0.13810948,0.106805384,inf,inf,inf,inf,1,1,1,1,2,0,2,1,9,1,1,0,0
531347261,531345945,91277367,-3.8268153999999996,-49.6770943,8.286454,-1.4666798,-3.5302742,-0.017734911,-0.00094671885,0.0,0.070639126,0.12769625,-0.6881921,-0.51219696,-0.014139067,-0.017479504,0.04571215,0.5335852,1.0469595,7.605689,0.30933595,0.046308234,167.71822,1.9384695,0.322911,0.3933027,0.1314904,0.10525649,inf,inf,inf,inf,1,1,1,1,2,0,2,1,9,1,1,0,0
531446287,531445155,91277367,-3.8268153999999996,-49.6770943,8.281623,-1.4554124,-3.5714402,-0.017734911,-0.00094671885,0.0,0.048064157,0.11731543,-0.40420148,-0.23325506,-0.014139067,-0.017479504,0.04571215,-0.29262367,0.84711325,7.419892,0.3034712,0.046308234,167.71822,1.9796356,0.33104345,0.39747253,0.13351452,0.10695172,inf,inf,inf,inf,1,1,1,1,2,0,2,1,9,1,1,0,0
531545498,531544365,91277367,-3.8268153999999996,-49.6770943,8.276138,-1.4438199,-3.5840979,-0.017734911,-0.00094671885,0.0,0.029934587,0.12519324,-0.08767547,0.0745494,-0.014139067,-0.017479504,0.04571215,-1.0034996,0.4205533,-1.3060313,0.30106238,0.046308234,167.71822,1.9922932,0.3226685,0.39470556,0.12783566,0.10539737,inf,inf,inf,inf,1,1,1,1,2,0,2,1,9,1,1,0,0
531645008,531643575,91277367,-3.8268153999999996,-49.6770943,8.269591,-1.4312259,-3.573566,-0.017734911,-0.00094671885,0.0,0.013153135,0.13683379,0.22433311,0.37111127,-0.014139067,-0.017479504,0.04571215,-0.16119966,0.89361835,3.9506993,0.29971227,0.046308234,167.71822,1.9817613,0.33060047,0.39635724,0.13014315,0.10682392,inf,inf,inf,inf,1,1,1,1,2,0,2,1,9,1,1,0,0
531744119,531742785,91277367,-3.8268153999999996,-49.6770943,8.258443,-1.4159465,-3.5489564,-0.017734911,-0.00094671885,0.0,-0.012703915,0.14738895,0.38510463,0.5106837,-0.014139067,-0.017479504,0.04571215,0.07371585,0.47117034,4.1149487,0.3003667,0.046308234,167.71822,1.9571518,0.3223592,0.39362338,0.1253725,0.105290145,inf,inf,inf,inf,1,1,1,1,2,0,2,1,9,1,1,0,0
531847785,531846504,91277367,-3.8268153999999996,-49.6770943,8.243877,-1.3978112,-3.5140896,-0.017734911,-0.00094671885,0.0,-0.03521041,0.14631161,0.41491184,0.519447,-0.014139067,-0.017479504,0.04571215,-0.41314763,-2.6979442,-7.9906616,0.29932895,0.046308234,167.71822,1.922285,0.3301199,0.39525622,0.12821752,0.10671107,inf,inf,inf,inf,1,1,1,1,2,0,2,1,9,1,1,0,0
531946947,531945714,91277367,-3.8268153999999996,-49.6770943,8.227959,-1.3814657,-3.491158,-0.017734911,-0.00094671885,0.0,-0.050049286,0.14785437,0.3340262,0.4120505,-0.014139067,-0.017479504,0.04571215,0.09046751,-1.7695835,-3.1830873,0.29903996,0.046308234,167.71822,1.8993534,0.32194737,0.39504004,0.12431342,0.105446786,inf,inf,inf,inf,1,1,1,1,2,0,2,1,9,1,1,0,0
532046042,532044924,91277367,-3.8268153999999996,-49.6770943,8.212589,-1.3668154,-3.4815102,-0.017734911,-0.00094671885,0.0,-0.039623424,0.13494314,0.22859702,0.28048292,-0.014139067,-0.017479504,0.04571215,0.43512556,-2.0348608,-5.8673353,0.30294934,0.046308234,167.71822,1.8897055,0.3295671,0.3967027,0.12815385,0.10687642,inf,inf,inf,inf,1,1,1,1,2,0,2,1,9,1,1,0,0
532145620,532144138,91277367,-3.8268153999999996,-49.6770943,8.20127,-1.3524207,-3.4780726,-0.017734911,-0.00094671885,0.0,-0.024882575,0.11693781,0.16517976,0.1972908,-0.014139067,-0.017479504,0.04571215,0.44663042,-0.3932062,6.374577,0.30942088,0.046308234,167.71822,1.886268,0.3214048,0.39394328,0.12509081,0.10532218,inf,inf,inf,inf,1,1,1,1,2,0,2,1,9,1,1,0,0
532244959,532243344,91277367,-3.8268153999999996,-49.6770943,8.193407,-1.3389066,-3.4734204,-0.017734911,-0.00094671885,0.0,-0.009811075,0.09976648,0.12508453,0.14674437,-0.014139067,-0.017479504,0.04571215,0.2844112,1.1531183,10.157566,0.31563237,0.046308234,167.71822,1.8816158,0.3289133,0.3955776,0.12926483,0.106741995,inf,inf,inf,inf,1,1,1,1,2,0,2,1,9,1,1,0,0
532348419,532347064,91277367,-3.8268153999999996,-49.6770943,8.185947,-1.3253187,-3.4722805,-0.017734911,-0.00094671885,0.0,-0.010065863,0.08393715,0.049020965,0.06279878,-0.014139067,-0.017479504,0.04571215,-0.064985126,-0.0029415705,-4.1124735,0.320068,0.046308234,167.71822,1.8804759,0.32085776,0.39535877,0.12642416,0.105474964,inf,inf,inf,inf,1,1,1,1,2,0,2,1,9,1,1,0,0
532447412,532446274,91277367,-3.8268153999999996,-49.6770943,8.178724,-1.3124064,-3.4750013,-0.017734911,-0.00094671885,0.0,-0.0013531847,0.08080006,0.02579251,0.031788725,-0.014139067,-0.017479504,0.04571215,0.056698725,0.5677007,-7.8476844,0.32058677,0.046308234,167.71822,1.8831967,0.32829502,0.3970142,0.1311079,0.10690241,inf,inf,inf,inf,1,1,1,1,2,0,2,1,9,1,1,0,0
532546721,532545484,91277367,-3.8268153999999996,-49.6770943,8.172566,-1.2985855,-3.4706786,-0.017734911,-0.00094671885,0.0,0.015456821,0.09544948,0.03887399,0.045665376,-0.014139067,-0.017479504,0.04571215,-0.16698283,1.807973,6.6832833,0.32016787,0.046308234,167.71822,1.878874,0.32027638,0.3942619,0.12833184,0.10536344,inf,inf,inf,inf,1,1,1,1,2,0,2,1,9,1,1,0,0
532645835,532644694,91277367,-3.8268153999999996,-49.6770943,8.167924,-1.2839415,-3.4705706,-0.017734911,-0.00094671885,0.0,0.03157711,0.09274842,0.03073409,0.037147127,-0.014139067,-0.017479504,0.04571215,0.4198614,-2.042042,11.914631,0.3224708,0.046308234,167.71822,1.878766,0.32767472,0.3959069,0.13314193,0.106787,inf,inf,inf,inf,1,1,1,1,2,0,2,1,9,1,1,0,0
532745465,532743904,91277367,-3.8268153999999996,-49.6770943,8.163925,-1.2696985,-3.4747448,-0.017734911,-0.00094671885,0.0,0.04481422,0.08865088,0.001682222,0.0053057075,-0.014139067,-0.017479504,0.04571215,0.23076622,-2.1887329,2.99728,0.3255165,0.046308234,167.71822,1.8829402,0.31963393,0.39316505,0.13042912,0.105237044,inf,inf,inf,inf,1,1,1,1,2,0,2,1,9,1,1,0,0
532844476,532843117,91277367,-3.8268153999999996,-49.6770943,8.159793,-1.2571303,-3.4784114,-0.017734911,-0.00094671885,0.0,0.06280722,0.07598041,0.025008101,0.026657399,-0.014139067,-0.017479504,0.04571215,-0.10536191,3.1623006,12.194242,0.32886502,0.046308234,167.71822,1.8866068,0.32701942,0.39733475,0.135553,0.10693226,inf,inf,inf,inf,1,1,1,1,2,0,2,1,9,1,1,0,0
532943466,532942325,91277367,-3.8268153999999996,-49.6770943,8.156705,-1.2490468,-3.4785008,-0.017734911,-0.00094671885,0.0,0.09500586,0.037608057,0.057707146,0.057616387,-0.014139067,-0.017479504,0.04571215,-0.63195723,0.63297015,6.022728,0.3288853,0.046308234,167.71822,1.8866962,0.3190546,0.39458206,0.13242124,0.105392754,inf,inf,inf,inf,1,1,1,1,2,0,2,1,9,1,1,0,0
533047164,533046043,91277367,-3.8268153999999996,-49.6770943,8.158346,-1.2462848,-3.4738843,-0.017734911,-0.00094671885,0.0,0.14792229,-0.010603977,0.15461493,0.15088068,-0.014139067,-0.017479504,0.04571215,-0.27784956,-0.95843357,10.390984,0.32403702,0.046308234,167.71822,1.8820797,0.32646018,0.39623696,0.13746929,0.10681812,inf,inf,inf,inf,1,1,1,1,2,0,2,1,9,1,1,0,0
533146586,533145253,91277367,-3.8268153999999996,-49.6770943,8.161574,-1.2469529,-3.461398,-0.017734911,-0.00094671885,0.0,0.1699758,-0.037006952,0.20046397,0.19323017,-0.014139067,-0.017479504,0.04571215,0.2643018,-0.4149316,-4.9461007,0.31779915,0.046308234,167.71822,1.8695933,0.31852043,0.39349267,0.13416065,0.10527963,inf,inf,inf,inf,1,1,1,1,2,0,2,1,9,1,1,0,0
533245855,533244463,91277367,-3.8268153999999996,-49.6770943,8.1653805,-1.2493243,-3.444632,-0.017734911,-0.00094671885,0.0,0.17090245,-0.036874324,0.22373535,0.21312724,-0.014139067,-0.017479504,0.04571215,0.06631699,1.4188015,2.1433074,0.31122094,0.046308234,167.71822,1.8528274,0.3259635,0.3976706,0.13945507,0.10697617,inf,inf,inf,inf,1,1,1,1,2,0,2,1,9,1,1,0,0
533345015,533343673,91277367,-3.8268153999999996,-49.6770943,8.166022,-1.2509389,-3.4319873,-0.017734911,-0.00094671885,0.0,0.15992483,-0.04038084,0.19931091,0.18168387,-0.014139067,-0.017479504,0.04571215,0.023585543,0.89704907,-2.5803657,0.30455568,0.046308234,167.71822,1.8401827,0.3180152,0.39490813,0.13587104,0.105435334,inf,inf,inf,inf,1,1,1,1,2,0,2,1,9,1,1,0,0
533444433,533442883,91277367,-3.8268153999999996,-49.6770943,8.163972,-1.2526222,-3.42622,-0.017734911,-0.00094671885,0.0,0.14333716,-0.04454432,0.19457866,0.1676612,-0.014139067,-0.017479504,0.04571215,0.49644634,2.8325646,14.2934065,0.300011,0.046308234,167.71822,1.8344153,0.32551792,0.39655647,0.14134133,0.10686091,inf,inf,inf,inf,1,1,1,1,2,0,2,1,9,1,1,0,0
533547871,533546603,91277367,-3.8268153999999996,-49.6770943,8.1618805,-1.2581372,-3.4243135,-0.017734911,-0.00094671885,0.0,0.14870058,-0.07597074,0.20069179,0.16116875,-0.014139067,-0.017479504,0.04571215,0.5250989,-1.2497894,5.3509035,0.29689988,0.046308234,167.71822,1.8325089,0.31756997,0.3938116,0.13769378,0.10532327,inf,inf,inf,inf,1,1,1,1,2,0,2,1,9,1,1,0,0
533647077,533645812,91277367,-3.8268153999999996,-49.6770943,8.159285,-1.2659073,-3.4190097,-0.017734911,-0.00094671885,0.0,0.13616881,-0.07864311,0.18081988,0.13270245,-0.014139067,-0.017479504,0.04571215,0.03947409,-0.35761964,-2.8125808,0.2959746,0.046308234,167.71822,1.8272051,0.32515115,0.39544955,0.14307053,0.106746025,inf,inf,inf,inf,1,1,1,1,2,0,2,1,9,1,1,0,0
533746477,533745026,91277367,-3.8268153999999996,-49.6770943,8.155019,-1.273936,-3.4148436,-0.017734911,-0.00094671885,0.0,0.12651743,-0.08921154,0.19900858,0.14226538,-0.014139067,-0.017479504,0.04571215,0.4867365,-4.1597323,-0.6686562,0.29670766,0.046308234,167.71822,1.8230389,0.3171912,0.39522642,0.1392771,0.10547796,inf,inf,inf,inf,1,1,1,1,2,0,2,1,9,1,1,0,0
533845579,533844232,91277367,-3.8268153999999996,-49.6770943,8.150036,-1.28193,-3.4096892,-0.017734911,-0.00094671885,0.0,0.113400124,-0.08600352,0.17936404,0.116779596,-0.014139067,-0.017479504,0.04571215,0.41340432,-3.290266,4.088853,0.29712662,0.046308234,167.71822,1.8178846,0.3248577,0.3968855,0.14473419,0.106906585,inf,inf,inf,inf,1,1,1,1,2,0,2,1,9,1,1,0,0
533944795,533943443,91277367,-3.8268153999999996,-49.6770943,8.143681,-1.290673,-3.4004054,-0.017734911,-0.00094671885,0.0,0.120041005,-0.10145865,0.17095062,0.107737824,-0.014139067,-0.017479504,0.04571215,0.3263404,-1.4259185,-8.064602,0.2992811,0.046308234,167.71822,1.8086008,0.31685215,0.3941397,0.14044373,0.10536775,inf,inf,inf,inf,1,1,1,1,2,0,2,1,9,1,1,0,0
534043785,534042652,91277367,-3.8268153999999996,-49.6770943,8.13915,-1.3004391,-3.3849773,-0.017734911,-0.00094671885,0.0,0.135313,-0.09969048,0.2354456,0.17414828,-0.014139067,-0.017479504,0.04571215,0.2976988,1.8047577,6.9691315,0.2990715,0.046308234,167.71822,1.7931727,0.3246094,0.39578846,0.14585638,0.1067929,inf,inf,inf,inf,1,1,1,1,2,0,2,1,9,1,1,0,0
534147546,534146378,91277367,-3.8268153999999996,-49.6770943,8.137476,-1.311294,-3.361537,-0.017734911,-0.00094671885,0.0,0.1658336,-0.1142608,0.23715718,0.1823376,-0.014139067,-0.017479504,0.04571215,1.1277521,-1.3379321,6.13681,0.29378277,0.046308234,167.71822,1.7697324,0.31653383,0.39556164,0.14111525,0.10552237,inf,inf,inf,inf,1,1,1,1,2,0,2,1,9,1,1,0,0
534246708,534245581,91277367,-3.8268153999999996,-49.6770943,8.138734,-1.3206764,-3.3430994,-0.017734911,-0.00094671885,0.0,0.18971878,-0.08449657,0.18317445,0.13352838,-0.014139067,-0.017479504,0.04571215,0.41543764,2.4396763,1.5366752,0.285739,0.046308234,167.71822,1.7512947,0.32437786,0.39722297,0.14646211,0.10695144,inf,inf,inf,inf,1,1,1,1,2,0,2,1,9,1,1,0,0
534346018,534344791,91277367,-3.8268153999999996,-49.6770943,8.1434145,-1.3271667,-3.3338234,-0.017734911,-0.00094671885,0.0,0.19893678,-0.0432718,0.09518866,0.047077823,-0.014139067,-0.017479504,0.04571215,-0.0051990626,3.1758108,-3.0694432,0.27844435,0.046308234,167.71822,1.7420188,0.316264,0.39446735,0.14201121,0.10540932,inf,inf,inf,inf,1,1,1,1,2,0,2,1,9,1,1,0,0
534445362,534444005,91277367,-3.8268153999999996,-49.6770943,8.1503,-1.328774,-3.3330383,-0.017734911,-0.00094671885,0.0,0.19519311,0.01192931,0.028242204,-0.019881792,-0.014139067,-0.017479504,0.04571215,-0.1618133,2.6994514,1.1772239,0.27516854,0.046308234,167.71822,1.7412337,0.32420328,0.3961095,0.14773443,0.1068308,inf,inf,inf,inf,1,1,1,1,2,0,2,1,9,1,1,0,0
534544488,534543211,91277367,-3.8268153999999996,-49.6770943,8.153085,-1.3228586,-3.3364108,-0.017734911,-0.00094671885,0.0,0.18143566,0.061925035,0.012983664,-0.03375824,-0.014139067,-0.017479504,0.04571215,0.2846256,0.6036512,11.379976,0.27520788,0.046308234,167.71822,1.7446061,0.31602836,0.39337152,0.14305547,0.105291136,inf,inf,inf,inf,1,1,1,1,2,0,2,1,9,1,1,0,0
534643548,534642421,91277367,-3.8268153999999996,-49.6770943,8.152871,-1.3116622,-3.3403926,-0.017734911,-0.00094671885,0.0,0.1695969,0.0845166,-0.056364074,-0.09753478,-0.014139067,-0.017479504,0.04571215,0.043255523,1.0995188,5.8520236,0.2806368,0.046308234,167.71822,1.748588,0.3240623,0.39754298,0.1483255,0.10698493,inf,inf,inf,inf,1,1,1,1,2,0,2,1,9,1,1,0,0
534747322,534746140,91277367,-3.8268153999999996,-49.6770943,8.153595,-1.3000677,-3.3519192,-0.017734911,-0.00094671885,0.0,0.17623243,0.076844305,-0.12130423,-0.15933317,-0.014139067,-0.017479504,0.04571215,0.30411932,-2.2638304,-6.524614,0.2858494,0.046308234,167.71822,1.7601146,0.3157526,0.39477172,0.1434704,0.105427235,inf,inf,inf,inf,1,1,1,1,2,0,2,1,9,1,1,0,0
534846629,534845350,91277367,-3.8268153999999996,-49.6770943,8.153233,-1.2901497,-3.3653634,-0.017734911,-0.00094671885,0.0,0.18291025,0.08111242,-0.14313105,-0.17630678,-0.014139067,-0.017479504,0.04571215,0.60379624,0.416037,11.726133,0.29055485,0.046308234,167.71822,1.7735587,0.3238633,0.39642352,0.14862919,0.10685383,inf,inf,inf,inf,1,1,1,1,2,0,2,1,9,1,1,0,0
534946002,534944560,91277367,-3.8268153999999996,-49.6770943,8.156505,-1.2798383,-3.382961,-0.017734911,-0.00094671885,0.0,0.19406873,0.08362757,-0.25514683,-0.28220418,-0.014139067,-0.017479504,0.04571215,-0.36944526,3.2553062,-10.103873,0.29437453,0.046308234,167.71822,1.7911564,0.31551892,0.39367878,0.14372383,0.10530375,inf,inf,inf,inf,1,1,1,1,2,0,2,1,9,1,1,0,0
535045430,535043770,91277367,-3.8268153999999996,-49.6770943,8.163255,-1.269202,-3.401118,-0.017734911,-0.00094671885,0.0,0.21712774,0.06773757,-0.22092035,-0.23951001,-0.014139067,-0.017479504,0.04571215,0.07178969,0.32550657,11.118082,0.29496756,0.046308234,167.71822,1.8093134,0.3237002,0.39531094,0.14898297,0.106724754,inf,inf,inf,inf,1,1,1,1,2,0,2,1,9,1,1,0,0
535144108,535142979,91277367,-3.8268153999999996,-49.6770943,8.174737,-1.2618996,-3.421699,-0.017734911,-0.00094671885,0.0,0.24249536,0.052063998,-0.23537159,-0.2483798,-0.014139067,-0.017479504,0.04571215,0.85496485,0.5196498,-3.617292,0.29283598,0.046308234,167.71822,1.8298944,0.3153942,0.39509282,0.14378892,0.10545897,inf,inf,inf,inf,1,1,1,1,2,0,2,1,9,1,1,0,0
535234506,535233170,91277367,-3.8268153999999996,-49.6770943,8.189581,-1.2582939,-3.4445152,-0.017734911,-0.00094671885,0.0,0.27039567,0.03102398,-0.21176608,-0.22665282,-0.014139067,-0.017479504,0.04571215,0.69384944,1.9907942,2.4289181,0.29253572,0.046308234,167.71822,1.8527106,0.32279328,0.39606917,0.1482441,0.10668805,inf,inf,inf,inf,1,1,1,1,2,0,2,1,9,1,1,0,0
535347144,535345908,91277367,-3.8268153999999996,-49.6770943,8.210428,-1.2547543,-3.4704065,-0.017734911,-0.00094671885,0.0,0.2622069,0.028682023,-0.16009507,-0.177173,-0.014139067,-0.017479504,0.04571215,0.039392605,-0.8487154,6.677821,0.2918793,0.046308234,167.71822,1.8786019,0.31527302,0.39399955,0.14327888,0.105347686,inf,inf,inf,inf,1,1,1,1,2,0,2,1,9,1,1,0,0
535446419,535445118,91277367,-3.8268153999999996,-49.6770943,8.224154,-1.2487628,-3.4897876,-0.017734911,-0.00094671885,0.0,0.19601521,0.06816863,-0.12418741,-0.1434496,-0.014139067,-0.017479504,0.04571215,-1.7104821,0.677208,-5.0889854,0.29503936,0.046308234,167.71822,1.897983,0.32357237,0.39563388,0.14790429,0.10676875,inf,inf,inf,inf,1,1,1,1,2,0,2,1,9,1,1,0,0
535545738,535544328,91277367,-3.8268153999999996,-49.6770943,8.229921,-1.2364291,-3.5039878,-0.017734911,-0.00094671885,0.0,0.11964686,0.14492382,-0.04658417,-0.071359836,-0.014139067,-0.017479504,0.04571215,-1.9833795,0.41824856,-10.692686,0.29191622,0.046308234,167.71822,1.9121832,0.31514186,0.3954127,0.14265658,0.10549419,inf,inf,inf,inf,1,1,1,1,2,0,2,1,9,1,1,0,0
535644671,535643542,91277367,-3.8268153999999996,-49.6770943,8.22797,-1.2141346,-3.5147727,-0.017734911,-0.00094671885,0.0,0.050317742,0.26136914,0.031282578,-0.0009589491,-0.014139067,-0.017479504,0.04571215,0.78715307,0.64160424,13.133188,0.28314438,0.046308234,167.71822,1.922968,0.323472,0.39706773,0.14719318,0.10690595,inf,inf,inf,inf,1,1,1,1,2,0,2,1,9,1,1,0,0
535743894,535742747,91277367,-3.8268153999999996,-49.6770943,8.223489,-1.1841173,-3.5199795,-0.017734911,-0.00094671885,0.0,0.008891976,0.3595838,-0.0005533402,-0.035632744,-0.014139067,-0.017479504,0.04571215,-1.1147541,1.4257107,-3.4518805,0.28264105,0.046308234,167.71822,1.9281749,0.3150203,0.3943127,0.14168128,0.10535357,inf,inf,inf,inf,1,1,1,1,2,0,2,1,9,1,1,0,0
535847605,535846467,91277367,-3.8268153999999996,-49.6770943,8.218522,-1.1437782,-3.522121,-0.017734911,-0.00094671885,0.0,-0.024044365,0.48410732,0.017181871,-0.019554079,-0.014139067,-0.017479504,0.04571215,-1.0866513,3.835608,-9.408845,0.28244728,0.046308234,167.71822,1.9303163,0.32337603,0.3959561,0.14649609,0.10676856,inf,inf,inf,inf,1,1,1,1,2,0,2,1,9,1,1,0,0
535946980,535945676,91277367,-3.8268153999999996,-49.6770943,8.206856,-1.0938383,-3.5256588,-0.017734911,-0.00094671885,0.0,-0.066417314,0.6033659,0.05233871,0.0113775935,-0.014139067,-0.017479504,0.04571215,-0.38740072,0.9717918,0.7825539,0.28040692,0.046308234,167.71822,1.9338542,0.31488234,0.39322695,0.1413806,0.10523587,inf,inf,inf,inf,1,1,1,1,2,0,2,1,9,1,1,0,0
536046242,536044890,91277367,-3.8268153999999996,-49.6770943,8.189192,-1.0304757,-3.5252192,-0.017734911,-0.00094671885,0.0,-0.11241259,0.7490895,0.049802255,0.0090765115,-0.014139067,-0.017479504,0.04571215,-0.1985665,0.12135554,4.196238,0.2807871,0.046308234,167.71822,1.9334146,0.32326752,0.39740506,0.14634584,0.10692815,inf,inf,inf,inf,1,1,1,1,2,0,2,1,9,1,1,0,0
536145268,536144095,91277367,-3.8268153999999996,-49.6770943,8.17694,-0.95214105,-3.522737,-0.017734911,-0.00094671885,0.0,-0.13988724,0.8423963,-0.00200007,-0.038515083,-0.014139067,-0.017479504,0.04571215,-0.7824288,-1.441096,-8.4534445,0.28466058,0.046308234,167.71822,1.9309324,0.31467223,0.39464197,0.14121957,0.10536586,inf,inf,inf,inf,1,1,1,1,2,0,2,1,9,1,1,0,0
536244492,536243305,91277367,-3.8268153999999996,-49.6770943,8.173296,-0.8668052,-3.5208368,-0.017734911,-0.00094671885,0.0,-0.119876795,0.8574732,0.025917407,-0.005547669,-0.014139067,-0.017479504,0.04571215,1.3764819,2.265763,10.978753,0.2899516,0.046308234,167.71822,1.9290322,0.32307434,0.3962849,0.14619455,0.10678957,inf,inf,inf,inf,1,1,1,1,2,0,2,1,9,1,1,0,0
536348152,536347024,91277367,-3.8268153999999996,-49.6770943,8.168825,-0.78759116,-3.5239081,-0.017734911,-0.00094671885,0.0,-0.07264975,0.7469003,-0.0030596917,-0.03310405,-0.014139067,-0.017479504,0.04571215,0.32968932,3.0871093,12.761366,0.29316437,0.046308234,167.71822,1.9321035,0.31449434,0.39354694,0.14075588,0.10525504,inf,inf,inf,inf,1,1,1,1,2,0,2,1,9,1,1,0,0
536447385,536446242,91277367,-3.8268153999999996,-49.6770943,8.167531,-0.7285022,-3.5306675,-0.017734911,-0.00094671885,0.0,-0.013358497,0.589233,-0.03259261,-0.06221927,-0.014139067,-0.017479504,0.04571215,1.4352643,-0.70587844,2.0237937,0.29156673,0.046308234,167.71822,1.9388629,0.32291877,0.39772278,0.14533563,0.10693595,inf,inf,inf,inf,1,1,1,1,2,0,2,1,9,1,1,0,0
536546791,536545446,91277367,-3.8268153999999996,-49.6770943,8.171135,-0.6829673,-3.5408294,-0.017734911,-0.00094671885,0.0,0.031899508,0.43262914,-0.06693402,-0.09897969,-0.014139067,-0.017479504,0.04571215,-0.27132735,-1.5512474,-11.794456,0.28824154,0.046308234,167.71822,1.9490248,0.3143479,0.3949585,0.13985904,0.105368674,inf,inf,inf,inf,1,1,1,1,2,0,2,1,9,1,1,0,0
536646033,536644653,91277367,-3.8268153999999996,-49.6770943,8.178757,-0.64955086,-3.5472846,-0.017734911,-0.00094671885,0.0,0.06966038,0.32376054,0.017734215,-0.01506997,-0.014139067,-0.017479504,0.04571215,0.19748403,0.09765306,12.208689,0.28549698,0.046308234,167.71822,1.95548,0.32278666,0.39660272,0.1444945,0.10677084,inf,inf,inf,inf,1,1,1,1,2,0,2,1,9,1,1,0,0
536745066,536743863,91277367,-3.8268153999999996,-49.6770943,8.185076,-0.617131,-3.5529168,-0.017734911,-0.00094671885,0.0,0.09572253,0.23413377,0.003027083,-0.031995483,-0.014139067,-0.017479504,0.04571215,0.057346478,1.2051075,0.09220544,0.2859648,0.046308234,167.71822,1.9611121,0.31415784,0.39385673,0.13908213,0.105229065,inf,inf,inf,inf,1,1,1,1,2,0,2,1,9,1,1,0,0
536844388,536843073,91277367,-3.8268153999999996,-49.6770943,8.19069,-0.5858605,-3.5548842,-0.017734911,-0.00094671885,0.0,0.111043245,0.18929926,0.06965204,0.03389918,-0.014139067,-0.017479504,0.04571215,0.7333303,0.16978994,8.360746,0.29032078,0.046308234,167.71822,1.9630796,0.3225962,0.39549,0.14356749,0.1066451,inf,inf,inf,inf,1,1,1,1,2,0,2,1,9,1,1,0,0
536947940,536946792,91277367,-3.8268153999999996,-49.6770943,8.195065,-0.5542562,-3.5511544,-0.017734911,-0.00094671885,0.0,0.11626154,0.1573622,0.1300412,0.09406544,-0.014139067,-0.017479504,0.04571215,1.1004757,0.22681515,15.048955,0.29684076,0.046308234,167.71822,1.9593498,0.3139032,0.39527512,0.13839239,0.105384,inf,inf,inf,inf,1,1,1,1,2,0,2,1,9,1,1,0,0
537047126,537046002,91277367,-3.8268153999999996,-49.6770943,8.1973505,-0.5245697,-3.5463502,-0.017734911,-0.00094671885,0.0,0.1037714,0.12825498,0.10192032,0.063655384,-0.014139067,-0.017479504,0.04571215,-0.95200384,-1.3293602,-3.9944777,0.30088,0.046308234,167.71822,1.9545456,0.3223349,0.39692953,0.14271162,0.1068109,inf,inf,inf,inf,1,1,1,1,2,0,2,1,9,1,1,0,0
537146557,537145211,91277367,-3.8268153999999996,-49.6770943,8.197224,-0.49874598,-3.5397801,-0.017734911,-0.00094671885,0.0,0.101162024,0.12425963,0.17043935,0.13044547,-0.014139067,-0.017479504,0.04571215,0.84951615,1.9846495,13.743554,0.3029574,0.046308234,167.71822,1.9479755,0.31359676,0.39418253,0.13772121,0.105278455,inf,inf,inf,inf,1,1,1,1,2,0,2,1,9,1,1,0,0
537245792,537244421,91277367,-3.8268153999999996,-49.6770943,8.196044,-0.47450605,-3.5339847,-0.017734911,-0.00094671885,0.0,0.09776889,0.13565011,0.13811648,0.09319856,-0.014139067,-0.017479504,0.04571215,-0.63711214,1.6027116,-9.955116,0.3042182,0.046308234,167.71822,1.94218,0.32202023,0.39581814,0.1421988,0.10669982,inf,inf,inf,inf,1,1,1,1,2,0,2,1,9,1,1,0,0
537344962,537343630,91277367,-3.8268153999999996,-49.6770943,8.195729,-0.4481704,-3.5300186,-0.017734911,-0.00094671885,0.0,0.1008463,0.15255587,0.12487308,0.072772235,-0.014139067,-0.017479504,0.04571215,-0.68293947,1.0694295,-8.990804,0.30827418,0.046308234,167.71822,1.938214,0.31321415,0.39308184,0.13712005,0.105157815,inf,inf,inf,inf,1,1,1,1,2,0,2,1,9,1,1,0,0
537444037,537442848,91277367,-3.8268153999999996,-49.6770943,8.193758,-0.4191244,-3.52944,-0.017734911,-0.00094671885,0.0,0.07707921,0.16173324,0.13938914,0.080105186,-0.014139067,-0.017479504,0.04571215,-0.42087722,0.5900672,2.8681788,0.31317455,0.046308234,167.71822,1.9376353,0.32162324,0.39724928,0.1416704,0.106851526,inf,inf,inf,inf,1,1,1,1,2,0,2,1,9,1,1,0,0
537547707,537546559,91277367,-3.8268153999999996,-49.6770943,8.191163,-0.39297268,-3.5214105,-0.017734911,-0.00094671885,0.0,0.044504914,0.15716286,0.15772806,0.09816321,-0.014139067,-0.017479504,0.04571215,0.5828537,3.300357,9.411543,0.31637964,0.046308234,167.71822,1.9296058,0.31290945,0.3944937,0.13677143,0.10531691,inf,inf,inf,inf,1,1,1,1,2,0,2,1,9,1,1,0,0
537647099,537645769,91277367,-3.8268153999999996,-49.6770943,8.185783,-0.3725583,-3.5163038,-0.017734911,-0.00094671885,0.0,-0.0152475145,0.12620479,0.08616709,0.025450652,-0.014139067,-0.017479504,0.04571215,-2.08646,1.0849546,-8.818394,0.3165629,0.046308234,167.71822,1.9244992,0.3213172,0.39613098,0.14124702,0.10673624,inf,inf,inf,inf,1,1,1,1,2,0,2,1,9,1,1,0,0
537746554,537744979,91277367,-3.8268153999999996,-49.6770943,8.174935,-0.35086352,-3.517421,-0.017734911,-0.00094671885,0.0,-0.06840162,0.11530472,0.047176197,-0.0155477375,-0.014139067,-0.017479504,0.04571215,-0.44849977,-1.0583429,2.46515,0.31656572,0.046308234,167.71822,1.9256164,0.31261516,0.39339322,0.13673471,0.10520194,inf,inf,inf,inf,1,1,1,1,2,0,2,1,9,1,1,0,0
537845524,537844188,91277367,-3.8268153999999996,-49.6770943,8.159757,-0.32861114,-3.5249443,-0.017734911,-0.00094671885,0.0,-0.11120556,0.10677806,-0.0046615554,-0.07036975,-0.014139067,-0.017479504,0.04571215,-0.84846765,-1.3271934,-5.5875278,0.31457615,0.046308234,167.71822,1.9331397,0.32102594,0.3975689,0.14124402,0.10689637,inf,inf,inf,inf,1,1,1,1,2,0,2,1,9,1,1,0,0
537949043,537947907,91277367,-3.8268153999999996,-49.6770943,8.13978,-0.30560225,-3.5402217,-0.017734911,-0.00094671885,0.0,-0.16978718,0.10042173,-0.07333816,-0.14463028,-0.014139067,-0.017479504,0.04571215,-1.5465425,-0.53916234,-11.078779,0.31499007,0.046308234,167.71822,1.9484171,0.31233057,0.39481276,0.13671902,0.10535983,inf,inf,inf,inf,1,1,1,1,2,0,2,1,9,1,1,0,0
538043760,538042608,91277367,-3.8268153999999996,-49.6770943,8.11551,-0.28460887,-3.556125,-0.017734911,-0.00094671885,0.0,-0.24118319,0.0754051,-0.08981548,-0.1631235,-0.014139067,-0.017479504,0.04571215,-2.2098174,-1.3724325,-9.095013,0.3135412,0.046308234,167.71822,1.9643203,0.32074788,0.39646062,0.14131233,0.1067846,inf,inf,inf,inf,1,1,1,1,2,0,2,1,9,1,1,0,0
538142983,538141825,91277367,-3.8268153999999996,-49.6770943,8.084554,-0.26758865,-3.5736732,-0.017734911,-0.00094671885,0.0,-0.3167068,0.031850196,-0.054554056,-0.1309781,-0.014139067,-0.017479504,0.04571215,-1.621384,-2.5248241,-6.903421,0.31164184,0.046308234,167.71822,1.9818686,0.31206095,0.39372167,0.13664341,0.10525099,inf,inf,inf,inf,1,1,1,1,2,0,2,1,9,1,1,0,0
538247125,538245538,91277367,-3.8268153999999996,-49.6770943,8.044646,-0.25669646,-3.5847511,-0.017734911,-0.00094671885,0.0,-0.41397116,-0.007486369,0.012428092,-0.063740276,-0.014139067,-0.017479504,0.04571215,1.3092239,1.8973082,12.581285,0.30933085,0.046308234,167.71822,1.9929465,0.3204782,0.3953504,0.14111744,0.106666565,inf,inf,inf,inf,1,1,1,1,2,0,2,1,9,1,1,0,0
538346089,538344746,91277367,-3.8268153999999996,-49.6770943,7.996865,-0.24921843,-3.5955842,-0.017734911,-0.00094671885,0.0,-0.51611644,-0.056377474,0.028317804,-0.050906222,-0.014139067,-0.017479504,0.04571215,-0.73469836,0.36292902,4.248436,0.30642483,0.046308234,167.71822,2.0037794,0.31179783,0.39513153,0.1363022,0.105402865,inf,inf,inf,inf,1,1,1,1,2,0,2,1,9,1,1,0,0
538445093,538443956,91277367,-3.8268153999999996,-49.6770943,7.9401035,-0.2445281,-3.605341,-0.017734911,-0.00094671885,0.0,-0.61455107,-0.080130935,0.0706867,-0.013315451,-0.014139067,-0.017479504,0.04571215,0.005620271,-0.7424608,6.223813,0.30439487,0.046308234,167.71822,2.0135365,0.32020187,0.39678952,0.14073406,0.10683036,inf,inf,inf,inf,1,1,1,1,2,0,2,1,9,1,1,0,0
538544329,538543165,91277367,-3.8268153999999996,-49.6770943,7.87068,-0.23852772,-3.6077898,-0.017734911,-0.00094671885,0.0,-0.7186956,-0.08780554,0.047726855,-0.03572415,-0.014139067,-0.017479504,0.04571215,-2.1101298,-0.35282642,-9.880924,0.30477634,0.046308234,167.71822,2.015985,0.31154108,0.3940413,0.13617963,0.10529691,inf,inf,inf,inf,1,1,1,1,2,0,2,1,9,1,1,0,0
538643506,538642381,91277367,-3.8268153999999996,-49.6770943,7.790762,-0.2312664,-3.606791,-0.017734911,-0.00094671885,0.0,-0.7983591,-0.081046335,0.10043873,0.0188863,-0.014139067,-0.017479504,0.04571215,-0.57850754,2.2777476,5.4276857,0.3061026,0.046308234,167.71822,2.0149865,0.3199359,0.39568013,0.14057268,0.10672254,inf,inf,inf,inf,1,1,1,1,2,0,2,1,9,1,1,0,0
538747441,538746094,91277367,-3.8268153999999996,-49.6770943,7.706764,-0.22389823,-3.5964756,-0.017734911,-0.00094671885,0.0,-0.8321316,-0.07799295,0.16501491,0.09060046,-0.014139067,-0.017479504,0.04571215,0.5560056,1.7487806,11.288521,0.308439,0.046308234,167.71822,2.004671,0.31130418,0.3954579,0.13572444,0.10546078,inf,inf,inf,inf,1,1,1,1,2,0,2,1,9,1,1,0,0
538846649,538845304,91277367,-3.8268153999999996,-49.6770943,7.6298223,-0.21605648,-3.5844133,-0.017734911,-0.00094671885,0.0,-0.8142372,-0.06898795,0.10283638,0.03498603,-0.014139067,-0.017479504,0.04571215,0.2412094,2.3330114,-11.452118,0.31176695,0.046308234,167.71822,1.9926087,0.31969002,0.397118,0.14010043,0.1068928,inf,inf,inf,inf,1,1,1,1,2,0,2,1,9,1,1,0,0
538945645,538944513,91277367,-3.8268153999999996,-49.6770943,7.555009,-0.20368315,-3.576039,-0.017734911,-0.00094671885,0.0,-0.7401709,-0.037350666,0.12038163,0.05702357,-0.014139067,-0.017479504,0.04571215,0.44739679,1.9804238,12.721297,0.31498387,0.046308234,167.71822,1.9842345,0.3111147,0.3943687,0.13571514,0.10535401,inf,inf,inf,inf,1,1,1,1,2,0,2,1,9,1,1,0,0
539044882,539043732,91277367,-3.8268153999999996,-49.6770943,7.4871807,-0.18725045,-3.574555,-0.017734911,-0.00094671885,0.0,-0.64251137,-0.0046287426,0.0783609,0.014164531,-0.014139067,-0.017479504,0.04571215,1.035686,1.3352224,-5.143357,0.31664565,0.046308234,167.71822,1.9827503,0.3195006,0.39600998,0.1400039,0.10676577,inf,inf,inf,inf,1,1,1,1,2,0,2,1,9,1,1,0,0
539144276,539142932,91277367,-3.8268153999999996,-49.6770943,7.426642,-0.1674481,-3.5710409,-0.017734911,-0.00094671885,0.0,-0.54249364,0.02260214,0.13047163,0.06705543,-0.014139067,-0.017479504,0.04571215,0.7592884,-0.0104418155,6.898069,0.31745186,0.046308234,167.71822,1.9792362,0.3109212,0.3932782,0.13540854,0.105218805,inf,inf,inf,inf,1,1,1,1,2,0,2,1,9,1,1,0,0
539248007,539246652,91277367,-3.8268153999999996,-49.6770943,7.373465,-0.14501049,-3.5623915,-0.017734911,-0.00094671885,0.0,-0.42151374,0.051551867,0.17919736,0.11608343,-0.014139067,-0.017479504,0.04571215,0.7146013,1.6063194,4.7245064,0.31767082,0.046308234,167.71822,1.9705869,0.31930557,0.39744684,0.13964863,0.106899455,inf,inf,inf,inf,1,1,1,1,2,0,2,1,9,1,1,0,0
539347439,539345869,91277367,-3.8268153999999996,-49.6770943,7.3351264,-0.12625773,-3.5433638,-0.017734911,-0.00094671885,0.0,-0.2904675,0.07150698,0.18654202,0.1300337,-0.014139067,-0.017479504,0.04571215,1.7808452,2.0397894,-6.779105,0.3128506,0.046308234,167.71822,1.9515592,0.3107815,0.39468876,0.13492998,0.10534562,inf,inf,inf,inf,1,1,1,1,2,0,2,1,9,1,1,0,0
539446426,539445071,91277367,-3.8268153999999996,-49.6770943,7.3101435,-0.110750824,-3.5240264,-0.017734911,-0.00094671885,0.0,-0.16156255,0.05998734,0.2073575,0.15500222,-0.014139067,-0.017479504,0.04571215,1.7535355,-2.997242,-3.5835385,0.30568683,0.046308234,167.71822,1.9322218,0.31915247,0.39633957,0.13923733,0.1067531,inf,inf,inf,inf,1,1,1,1,2,0,2,1,9,1,1,0,0
539545543,539544280,91277367,-3.8268153999999996,-49.6770943,7.290042,-0.09592236,-3.500152,-0.017734911,-0.00094671885,0.0,-0.041406054,0.0529977,0.20036367,0.1564247,-0.014139067,-0.017479504,0.04571215,1.1211101,-0.799226,2.2086136,0.2975483,0.046308234,167.71822,1.9083475,0.31062242,0.3935991,0.13496833,0.105208516,inf,inf,inf,inf,1,1,1,1,2,0,2,1,9,1,1,0,0
539644771,539643490,91277367,-3.8268153999999996,-49.6770943,7.276603,-0.083040036,-3.4796813,-0.017734911,-0.00094671885,0.0,0.061905984,0.04703685,0.12882964,0.09146536,-0.014139067,-0.017479504,0.04571215,1.2458318,2.5282052,-7.809711,0.2896583,0.046308234,167.71822,1.8878766,0.31898862,0.39522997,0.13934866,0.1066176,inf,inf,inf,inf,1,1,1,1,2,0,2,1,9,1,1,0,0
539743888,539742700,91277367,-3.8268153999999996,-49.6770943,7.269447,-0.07065339,-3.4653132,-0.017734911,-0.00094671885,0.0,0.13243374,0.06653114,0.07127262,0.04010313,-0.014139067,-0.017479504,0.04571215,0.4068688,3.7027862,-7.4722476,0.28636408,0.046308234,167.71822,1.8735086,0.31045485,0.39501563,0.1351613,0.10535143,inf,inf,inf,inf,1,1,1,1,2,0,2,1,9,1,1,0,0
539847813,539846419,91277367,-3.8268153999999996,-49.6770943,7.268042,-0.056345165,-3.4564493,-0.017734911,-0.00094671885,0.0,0.18374693,0.090098344,0.07118971,0.044204522,-0.014139067,-0.017479504,0.04571215,0.39288527,0.3326848,11.867814,0.28977463,0.046308234,167.71822,1.8646446,0.3188326,0.39666697,0.13992064,0.10677415,inf,inf,inf,inf,1,1,1,1,2,0,2,1,9,1,1,0,0
539947039,539945628,91277367,-3.8268153999999996,-49.6770943,7.268314,-0.040814575,-3.4499927,-0.017734911,-0.00094671885,0.0,0.20894234,0.11735343,-0.03174131,-0.052018184,-0.014139067,-0.017479504,0.04571215,-0.023301214,2.1475723,-8.78501,0.29382902,0.046308234,167.71822,1.858188,0.31021056,0.39391875,0.13553993,0.105228476,inf,inf,inf,inf,1,1,1,1,2,0,2,1,9,1,1,0,0
540046112,540044837,91277367,-3.8268153999999996,-49.6770943,7.266939,-0.023846934,-3.4513216,-0.017734911,-0.00094671885,0.0,0.21373108,0.12108448,-0.048438318,-0.06573211,-0.014139067,-0.017479504,0.04571215,0.42653158,-0.77295494,-3.941091,0.29854736,0.046308234,167.71822,1.859517,0.31859297,0.3955502,0.14037487,0.10664702,inf,inf,inf,inf,1,1,1,1,2,0,2,1,9,1,1,0,0
540145193,540144047,91277367,-3.8268153999999996,-49.6770943,7.2656827,-0.0077590575,-3.4601605,-0.017734911,-0.00094671885,0.0,0.1938068,0.12859389,-0.06980466,-0.08835242,-0.014139067,-0.017479504,0.04571215,-0.25103807,1.6288716,-1.7438208,0.30525297,0.046308234,167.71822,1.8683559,0.3099505,0.3953262,0.13599835,0.10537223,inf,inf,inf,inf,1,1,1,1,2,0,2,1,9,1,1,0,0
540248965,540247766,91277367,-3.8268153999999996,-49.6770943,7.2619767,0.006302425,-3.4652486,-0.017734911,-0.00094671885,0.0,0.16487668,0.096132025,-0.0075352374,-0.025091708,-0.014139067,-0.017479504,0.04571215,0.09341854,-2.2994804,0.28977957,0.312245,0.046308234,167.71822,1.873444,0.31833673,0.3969782,0.14047803,0.10679787,inf,inf,inf,inf,1,1,1,1,2,0,2,1,9,1,1,0,0
540348319,540346976,91277367,-3.8268153999999996,-49.6770943,7.255255,0.016430045,-3.4664478,-0.017734911,-0.00094671885,0.0,0.1306143,0.07293932,0.03657106,0.017831739,-0.014139067,-0.017479504,0.04571215,-0.41776153,1.2688528,-3.68933,0.31583285,0.046308234,167.71822,1.8746432,0.30974838,0.39422882,0.13565646,0.10526518,inf,inf,inf,inf,1,1,1,1,2,0,2,1,9,1,1,0,0
540447545,540446185,91277367,-3.8268153999999996,-49.6770943,7.246849,0.023624636,-3.4621935,-0.017734911,-0.00094671885,0.0,0.09521376,0.05546111,0.051921595,0.03238357,-0.014139067,-0.017479504,0.04571215,-1.2304718,0.32280254,-10.386165,0.31540814,0.046308234,167.71822,1.8703889,0.31813058,0.39587072,0.140043,0.106686585,inf,inf,inf,inf,1,1,1,1,2,0,2,1,9,1,1,0,0
540546697,540545398,91277367,-3.8268153999999996,-49.6770943,7.235936,0.030965142,-3.462509,-0.017734911,-0.00094671885,0.0,0.060390174,0.047432903,0.04790128,0.022911558,-0.014139067,-0.017479504,0.04571215,-0.6135383,-0.6439327,-2.4857318,0.31352973,0.046308234,167.71822,1.8707043,0.30947804,0.39313182,0.13527723,0.10514362,inf,inf,inf,inf,1,1,1,1,2,0,2,1,9,1,1,0,0
540645730,540644604,91277367,-3.8268153999999996,-49.6770943,7.2214255,0.03823745,-3.4650095,-0.017734911,-0.00094671885,0.0,0.04848731,0.018733427,0.057832614,0.028619625,-0.014139067,-0.017479504,0.04571215,1.2144066,-3.2301252,8.693716,0.3121046,0.046308234,167.71822,1.8732048,0.31784877,0.3972981,0.14007014,0.10683696,inf,inf,inf,inf,1,1,1,1,2,0,2,1,9,1,1,0,0
540744950,540743813,91277367,-3.8268153999999996,-49.6770943,7.207987,0.03950618,-3.4703896,-0.017734911,-0.00094671885,0.0,0.06903053,-0.051423952,0.03557065,0.0010728413,-0.014139067,-0.017479504,0.04571215,0.4580033,1.3072598,7.0596604,0.31166267,0.046308234,167.71822,1.878585,0.3092476,0.3945484,0.13559176,0.10530468,inf,inf,inf,inf,1,1,1,1,2,0,2,1,9,1,1,0,0
540844617,540843023,91277367,-3.8268153999999996,-49.6770943,7.2001038,0.02850713,-3.4754016,-0.017734911,-0.00094671885,0.0,0.13508531,-0.20917812,0.0072354893,-0.030717025,-0.014139067,-0.017479504,0.04571215,1.2278159,-2.1101148,-1.5974698,0.31126535,0.046308234,167.71822,1.883597,0.31762856,0.39619234,0.14007196,0.10672391,inf,inf,inf,inf,1,1,1,1,2,0,2,1,9,1,1,0,0
540948298,540946742,91277367,-3.8268153999999996,-49.6770943,7.201361,-0.0026441084,-3.4769135,-0.017734911,-0.00094671885,0.0,0.23224862,-0.43361923,0.0042136773,-0.031937346,-0.014139067,-0.017479504,0.04571215,1.1495327,-3.2238307,2.3953063,0.31042573,0.046308234,167.71822,1.8851088,0.3090034,0.39345995,0.13568844,0.105178945,inf,inf,inf,inf,1,1,1,1,2,0,2,1,9,1,1,0,0
541047279,541045956,91277367,-3.8268153999999996,-49.6770943,7.212151,-0.05619395,-3.4775107,-0.017734911,-0.00094671885,0.0,0.32675943,-0.6686099,0.03027438,-0.003480748,-0.014139067,-0.017479504,0.04571215,0.7045147,-1.2218966,8.765812,0.30563128,0.046308234,167.71822,1.8857061,0.31739247,0.3976335,0.14054194,0.10684632,inf,inf,inf,inf,1,1,1,1,2,0,2,1,9,1,1,0,0
541146317,541145161,91277367,-3.8268153999999996,-49.6770943,7.2270446,-0.12943545,-3.4764957,-0.017734911,-0.00094671885,0.0,0.40519384,-0.894239,0.0055006742,-0.025465133,-0.014139067,-0.017479504,0.04571215,1.1626174,-2.7864408,-4.1738887,0.29791215,0.046308234,167.71822,1.8846911,0.308735,0.39487508,0.13610072,0.105280645,inf,inf,inf,inf,1,1,1,1,2,0,2,1,9,1,1,0,0
541245490,541244370,91277367,-3.8268153999999996,-49.6770943,7.2468004,-0.21889031,-3.4703276,-0.017734911,-0.00094671885,0.0,0.46543062,-1.0377054,0.014271266,-0.009536378,-0.014139067,-0.017479504,0.04571215,0.73173225,-0.26029384,-2.6703472,0.29343992,0.046308234,167.71822,1.878523,0.31712976,0.396516,0.1411166,0.10668074,inf,inf,inf,inf,1,1,1,1,2,0,2,1,9,1,1,0,0
541344758,541343581,91277367,-3.8268153999999996,-49.6770943,7.2689066,-0.3160061,-3.4672291,-0.017734911,-0.00094671885,0.0,0.4863256,-1.0956372,-0.019200083,-0.038854606,-0.014139067,-0.017479504,0.04571215,-0.42396572,-0.5349137,-9.33635,0.28415608,0.046308234,167.71822,1.8754245,0.30841112,0.39376894,0.13667063,0.105136596,inf,inf,inf,inf,1,1,1,1,2,0,2,1,9,1,1,0,0
541444388,541442789,91277367,-3.8268153999999996,-49.6770943,7.287348,-0.40984082,-3.4758728,-0.017734911,-0.00094671885,0.0,0.47499448,-1.0394709,-0.0270549,-0.052629914,-0.014139067,-0.017479504,0.04571215,-0.528803,-0.2409446,-5.3424535,0.27678284,0.046308234,167.71822,1.8840681,0.3168072,0.39539728,0.1413904,0.10655778,inf,inf,inf,inf,1,1,1,1,2,0,2,1,9,1,1,0,0
541534088,541532979,91277367,-3.8268153999999996,-49.6770943,7.307887,-0.4902465,-3.4866977,-0.017734911,-0.00094671885,0.0,0.45728207,-0.9243436,-0.039821953,-0.07038294,-0.014139067,-0.017479504,0.04571215,0.43229774,1.5107217,7.2825103,0.27149045,0.046308234,167.71822,1.894893,0.3073321,0.39450952,0.13611385,0.10508738,inf,inf,inf,inf,1,1,1,1,2,0,2,1,9,1,1,0,0
541646868,541645717,91277367,-3.8268153999999996,-49.6770943,7.3339314,-0.5748579,-3.5006485,-0.017734911,-0.00094671885,0.0,0.40739134,-0.7110625,-0.12138973,-0.15395187,-0.014139067,-0.017479504,0.04571215,-1.9381961,1.6059926,-10.84847,0.26218766,0.046308234,167.71822,1.9088439,0.3165479,0.39682084,0.14103837,0.106687605,inf,inf,inf,inf,1,1,1,1,2,0,2,1,9,1,1,0,0
541746040,541744927,91277367,-3.8268153999999996,-49.6770943,7.3475432,-0.627174,-3.5178068,-0.017734911,-0.00094671885,0.0,0.35813445,-0.46834484,-0.11446055,-0.15044142,-0.014139067,-0.017479504,0.04571215,-0.7217826,3.5797303,-2.528395,0.25721282,0.046308234,167.71822,1.9260021,0.30795592,0.3940734,0.13657042,0.105128355,inf,inf,inf,inf,1,1,1,1,2,0,2,1,9,1,1,0,0
541845397,541844136,91277367,-3.8268153999999996,-49.6770943,7.3532953,-0.65491164,-3.5370176,-0.017734911,-0.00094671885,0.0,0.28961483,-0.20295595,-0.10414029,-0.14449368,-0.014139067,-0.017479504,0.04571215,0.10285529,2.1010954,4.083258,0.2558679,0.046308234,167.71822,1.945213,0.31637156,0.39569455,0.14106092,0.10650606,inf,inf,inf,inf,1,1,1,1,2,0,2,1,9,1,1,0,0
541944833,541943345,91277367,-3.8268153999999996,-49.6770943,7.3559775,-0.6563202,-3.5595756,-0.017734911,-0.00094671885,0.0,0.21533366,0.10444783,-0.07396854,-0.12274173,-0.014139067,-0.017479504,0.04571215,0.02497021,0.75263083,4.19537,0.25577548,0.046308234,167.71822,1.9677709,0.30778652,0.39296842,0.13618925,0.10493,inf,inf,inf,inf,1,1,1,1,2,0,2,1,9,1,1,0,0
542034663,542033540,91277367,-3.8268153999999996,-49.6770943,7.353299,-0.6322227,-3.5759127,-0.017734911,-0.00094671885,0.0,0.14088216,0.41020817,-0.06390785,-0.1177373,-0.014139067,-0.017479504,0.04571215,-0.8789927,5.9359365,-2.0465522,0.2609611,0.046308234,167.71822,1.9841081,0.31533447,0.39644834,0.14050458,0.10637437,inf,inf,inf,inf,1,1,1,1,2,0,2,1,9,1,1,0,0
542147623,542146273,91277367,-3.8268153999999996,-49.6770943,7.3434987,-0.56893784,-3.5961034,-0.017734911,-0.00094671885,0.0,0.037574373,0.80960363,-0.061372034,-0.12414788,-0.014139067,-0.017479504,0.04571215,-2.913487,7.9108014,-8.235379,0.2704716,0.046308234,167.71822,2.0042987,0.30772617,0.3943802,0.13641545,0.105000116,inf,inf,inf,inf,1,1,1,1,2,0,2,1,9,1,1,0,0
542246711,542245483,91277367,-3.8268153999999996,-49.6770943,7.3255987,-0.47941944,-3.6129246,-0.017734911,-0.00094671885,0.0,-0.067961134,1.1722093,-0.04084096,-0.110841885,-0.014139067,-0.017479504,0.04571215,-3.3252473,5.661883,-7.891646,0.28007212,0.046308234,167.71822,2.02112,0.31613535,0.3960027,0.14141795,0.10637473,inf,inf,inf,inf,1,1,1,1,2,0,2,1,9,1,1,0,0
542345979,542344702,91277367,-3.8268153999999996,-49.6770943,7.305826,-0.35712317,-3.6289518,-0.017734911,-0.00094671885,0.0,-0.17552581,1.552131,-0.018263943,-0.095478885,-0.014139067,-0.017479504,0.04571215,-3.0039332,9.313123,-9.292832,0.28296643,0.046308234,167.71822,2.037147,0.30769613,0.39327803,0.13751265,0.10482842,inf,inf,inf,inf,1,1,1,1,2,0,2,1,9,1,1,0,0
542448144,542443905,91277367,-3.8268153999999996,-49.6770943,7.2822585,-0.20116663,-3.6357274,-0.017734911,-0.00094671885,0.0,-0.27448875,1.9001571,0.038925275,-0.03970992,-0.014139067,-0.017479504,0.04571215,-2.0151498,4.139184,-0.11031582,0.28048295,0.046308234,167.71822,2.043923,0.3161144,0.39742094,0.14276814,0.10647813,inf,inf,inf,inf,1,1,1,1,2,0,2,1,9,1,1,0,0
542547004,542543111,91277367,-3.8268153999999996,-49.6770943,7.2607613,-0.022073627,-3.6386511,-0.017734911,-0.00094671885,0.0,-0.3614951,2.2333481,0.058020253,-0.021539126,-0.014139067,-0.017479504,0.04571215,-2.8810732,8.684442,-9.7391,0.29017267,0.046308234,167.71822,2.0468464,0.3077454,0.39466572,0.13849926,0.10493616,inf,inf,inf,inf,1,1,1,1,2,0,2,1,9,1,1,0,0
542650820,542646829,91277367,-3.8268153999999996,-49.6770943,7.2414165,0.18394826,-3.6382215,-0.017734911,-0.00094671885,0.0,-0.43625638,2.500499,0.11944831,0.037714705,-0.014139067,-0.017479504,0.04571215,-1.6020938,6.2784758,-3.390746,0.30216908,0.046308234,167.71822,2.0464168,0.31616965,0.39627653,0.14409146,0.106356315,inf,inf,inf,inf,1,1,1,1,2,0,2,1,9,1,1,0,0
542747195,542746039,91277367,-3.8268153999999996,-49.6770943,7.221869,0.38784596,-3.6271863,-0.017734911,-0.00094671885,0.0,-0.49293658,2.669744,0.14758097,0.07088655,-0.014139067,-0.017479504,0.04571215,-0.88520986,1.409487,0.46819624,0.3043247,0.046308234,167.71822,2.0353818,0.30790788,0.39354762,0.1396893,0.10484584,inf,inf,inf,inf,1,1,1,1,2,0,2,1,9,1,1,0,0
542846386,542845251,91277367,-3.8268153999999996,-49.6770943,7.200178,0.5976533,-3.6161146,-0.017734911,-0.00094671885,0.0,-0.5279022,2.7790785,0.11195556,0.041593675,-0.014139067,-0.017479504,0.04571215,0.07794338,4.468364,2.2991457,0.30933684,0.046308234,167.71822,2.02431,0.31635585,0.3976879,0.14478813,0.10654033,inf,inf,inf,inf,1,1,1,1,2,0,2,1,9,1,1,0,0
542945585,542944458,91277367,-3.8268153999999996,-49.6770943,7.1714787,0.82725745,-3.6027648,-0.017734911,-0.00094671885,0.0,-0.5374723,2.7978745,0.074456416,0.015470616,-0.014139067,-0.017479504,0.04571215,-0.03210409,0.85097814,-0.21252826,0.31012008,0.046308234,167.71822,2.01096,0.3079988,0.39492655,0.14013124,0.105024986,inf,inf,inf,inf,1,1,1,1,2,0,2,1,9,1,1,0,0
543047615,543043667,91277367,-3.8268153999999996,-49.6770943,7.1388345,1.066352,-3.5981238,-0.017734911,-0.00094671885,0.0,-0.53392696,2.7581205,0.04469261,-0.00895033,-0.014139067,-0.017479504,0.04571215,-0.11722274,-1.4614569,-3.7204368,0.3121578,0.046308234,167.71822,2.006319,0.3164763,0.39655438,0.14496675,0.1064517,inf,inf,inf,inf,1,1,1,1,2,0,2,1,9,1,1,0,0
543146924,543142878,91277367,-3.8268153999999996,-49.6770943,7.110579,1.3123726,-3.6019442,-0.017734911,-0.00094671885,0.0,-0.5090913,2.6773481,-0.012784671,-0.06672445,-0.014139067,-0.017479504,0.04571215,-1.5201598,-1.4641747,-12.688607,0.31358418,0.046308234,167.71822,2.0101395,0.3080519,0.3938197,0.13977118,0.10490622,inf,inf,inf,inf,1,1,1,1,2,0,2,1,9,1,1,0,0
543247979,543246605,91277367,-3.8268153999999996,-49.6770943,7.0891833,1.5697749,-3.6018586,-0.017734911,-0.00094671885,0.0,-0.45522505,2.5434754,0.03546044,-0.013975371,-0.014139067,-0.017479504,0.04571215,0.77992547,-1.1527506,7.183904,0.31542188,0.046308234,167.71822,2.010054,0.31655332,0.39542288,0.14412633,0.10629486,inf,inf,inf,inf,1,1,1,1,2,0,2,1,9,1,1,0,0
543346925,543345805,91277367,-3.8268153999999996,-49.6770943,7.070552,1.8057148,-3.6069226,-0.017734911,-0.00094671885,0.0,-0.39775938,2.352772,0.032613136,-0.016701588,-0.014139067,-0.017479504,0.04571215,1.8635905,0.16325824,10.590574,0.31444344,0.046308234,167.71822,2.0151181,0.3081136,0.39521122,0.13840297,0.10499314,inf,inf,inf,inf,1,1,1,1,2,0,2,1,9,1,1,0,0
543446140,543445014,91277367,-3.8268153999999996,-49.6770943,7.0553255,2.0262096,-3.6134377,-0.017734911,-0.00094671885,0.0,-0.33192232,2.1008127,0.013871594,-0.03631683,-0.014139067,-0.017479504,0.04571215,1.0365944,-4.3669715,2.83448,0.31569833,0.046308234,167.71822,2.0216331,0.31662145,0.39684522,0.14275298,0.106345855,inf,inf,inf,inf,1,1,1,1,2,0,2,1,9,1,1,0,0
543548141,543544223,91277367,-3.8268153999999996,-49.6770943,7.041657,2.228105,-3.614262,-0.017734911,-0.00094671885,0.0,-0.2546598,1.8170099,-0.003554149,-0.04861188,-0.014139067,-0.017479504,0.04571215,1.5130928,-2.612782,1.7103882,0.31800163,0.046308234,167.71822,2.0224576,0.3081275,0.39410505,0.13738099,0.104747236,inf,inf,inf,inf,1,1,1,1,2,0,2,1,9,1,1,0,0
543647492,543643433,91277367,-3.8268153999999996,-49.6770943,7.032396,2.406656,-3.616779,-0.017734911,-0.00094671885,0.0,-0.15922593,1.4654573,-0.027890723,-0.06901712,-0.014139067,-0.017479504,0.04571215,0.77940536,-8.302797,-4.3855267,0.3174301,0.046308234,167.71822,2.0249743,0.31662434,0.3957185,0.141503,0.106071435,inf,inf,inf,inf,1,1,1,1,2,0,2,1,9,1,1,0,0
543743963,543742642,91277367,-3.8268153999999996,-49.6770943,7.0269575,2.553481,-3.6242611,-0.017734911,-0.00094671885,0.0,-0.05489128,1.0866691,-0.019479932,-0.061668668,-0.014139067,-0.017479504,0.04571215,1.0432929,-5.2034125,0.29281604,0.31541973,0.046308234,167.71822,2.0324564,0.30818516,0.39300516,0.136642,0.104481936,inf,inf,inf,inf,1,1,1,1,2,0,2,1,9,1,1,0,0
543847641,543846361,91277367,-3.8268153999999996,-49.6770943,7.028055,2.6650631,-3.6337757,-0.017734911,-0.00094671885,0.0,0.058583733,0.6529982,-0.011573874,-0.057028953,-0.014139067,-0.017479504,0.04571215,0.89443046,-3.4234676,5.981429,0.31122407,0.046308234,167.71822,2.0419712,0.31667203,0.39713538,0.14106904,0.10605605,inf,inf,inf,inf,1,1,1,1,2,0,2,1,9,1,1,0,0
543946739,543945570,91277367,-3.8268153999999996,-49.6770943,7.033904,2.735508,-3.6444523,-0.017734911,-0.00094671885,0.0,0.17473905,0.19589418,-0.046341825,-0.09482807,-0.014139067,-0.017479504,0.04571215,1.1007069,-3.5105503,-3.5869405,0.3067609,0.046308234,167.71822,2.0526476,0.30820698,0.39439887,0.13652022,0.104477726,inf,inf,inf,inf,1,1,1,1,2,0,2,1,9,1,1,0,0
544045970,544044779,91277367,-3.8268153999999996,-49.6770943,7.0470915,2.765938,-3.6514678,-0.017734911,-0.00094671885,0.0,0.28998554,-0.22605838,0.0012445656,-0.04739595,-0.014139067,-0.017479504,0.04571215,1.2455503,1.1617552,7.22317,0.30644625,0.046308234,167.71822,2.0596633,0.3166771,0.39600888,0.14193197,0.105802424,inf,inf,inf,inf,1,1,1,1,2,0,2,1,9,1,1,0,0
544147895,544143989,91277367,-3.8268153999999996,-49.6770943,7.0637355,2.7572403,-3.6575499,-0.017734911,-0.00094671885,0.0,0.39411116,-0.6392356,0.03867154,-0.012730324,-0.014139067,-0.017479504,0.04571215,1.0688384,-6.6335397,-0.71143055,0.30468827,0.046308234,167.71822,2.0657454,0.30819753,0.39330098,0.13789104,0.10425891,inf,inf,inf,inf,1,1,1,1,2,0,2,1,9,1,1,0,0
544247471,544243198,91277367,-3.8268153999999996,-49.6770943,7.0861073,2.7106643,-3.662768,-0.017734911,-0.00094671885,0.0,0.494184,-1.0073583,0.06599923,0.009958571,-0.014139067,-0.017479504,0.04571215,1.037016,-2.3708549,4.921374,0.30193534,0.046308234,167.71822,2.0709634,0.3166567,0.39741987,0.14354219,0.10590151,inf,inf,inf,inf,1,1,1,1,2,0,2,1,9,1,1,0,0
544337388,544333389,91277367,-3.8268153999999996,-49.6770943,7.109593,2.6410477,-3.6650677,-0.017734911,-0.00094671885,0.0,0.577561,-1.3197801,0.06347431,0.0035089445,-0.014139067,-0.017479504,0.04571215,1.404605,-4.943128,-5.7404323,0.3016876,0.046308234,167.71822,2.0732632,0.30736408,0.3940317,0.13880895,0.10422699,inf,inf,inf,inf,1,1,1,1,2,0,2,1,9,1,1,0,0
544447349,544446126,91277367,-3.8268153999999996,-49.6770943,7.144295,2.520078,-3.665593,-0.017734911,-0.00094671885,0.0,0.67928916,-1.669019,0.07525958,0.011408376,-0.014139067,-0.017479504,0.04571215,1.1591407,-4.686195,-5.9651127,0.30184942,0.046308234,167.71822,2.0737882,0.316637,0.3962838,0.1450683,0.10583835,inf,inf,inf,inf,1,1,1,1,2,0,2,1,9,1,1,0,0
544546482,544545335,91277367,-3.8268153999999996,-49.6770943,7.178416,2.3791227,-3.672527,-0.017734911,-0.00094671885,0.0,0.7568771,-1.9340672,0.025860565,-0.045667745,-0.014139067,-0.017479504,0.04571215,0.36467713,-5.9359736,-7.1726427,0.30475503,0.046308234,167.71822,2.0807223,0.30806413,0.39356384,0.14066787,0.1043682,inf,inf,inf,inf,1,1,1,1,2,0,2,1,9,1,1,0,0
544648637,544644547,91277367,-3.8268153999999996,-49.6770943,7.2110887,2.2134926,-3.688485,-0.017734911,-0.00094671885,0.0,0.81051546,-2.105846,-0.051135093,-0.13042495,-0.014139067,-0.017479504,0.04571215,0.7475329,-2.5259147,-5.645341,0.30531922,0.046308234,167.71822,2.0966802,0.3165324,0.39513865,0.14677617,0.10581741,inf,inf,inf,inf,1,1,1,1,2,0,2,1,9,1,1,0,0
544747804,544743754,91277367,-3.8268153999999996,-49.6770943,7.24663,2.0329905,-3.703768,-0.017734911,-0.00094671885,0.0,0.83102816,-2.1788652,-0.08505462,-0.16391604,-0.014139067,-0.017479504,0.04571215,0.96205175,-2.6688957,-0.6042975,0.30477288,0.046308234,167.71822,2.1119633,0.30795336,0.39493585,0.1421295,0.10462076,inf,inf,inf,inf,1,1,1,1,2,0,2,1,9,1,1,0,0
544847111,544842963,91277367,-3.8268153999999996,-49.6770943,7.2784286,1.8507643,-3.717051,-0.017734911,-0.00094671885,0.0,0.82488775,-2.1494505,-0.06159976,-0.13626125,-0.014139067,-0.017479504,0.04571215,1.0157263,-0.6086446,7.710704,0.30342618,0.046308234,167.71822,2.1252465,0.31646168,0.39653343,0.14713438,0.10606062,inf,inf,inf,inf,1,1,1,1,2,0,2,1,9,1,1,0,0
544947826,544946682,91277367,-3.8268153999999996,-49.6770943,7.314603,1.6589217,-3.7270274,-0.017734911,-0.00094671885,0.0,0.8021985,-2.060819,-0.030236023,-0.09919111,-0.014139067,-0.017479504,0.04571215,1.9435163,-0.3963413,7.8116236,0.3029363,0.046308234,167.71822,2.135223,0.30792186,0.39381352,0.141366,0.10456833,inf,inf,inf,inf,1,1,1,1,2,0,2,1,9,1,1,0,0
545047098,545045898,91277367,-3.8268153999999996,-49.6770943,7.3469872,1.4826117,-3.7325208,-0.017734911,-0.00094671885,0.0,0.755698,-1.9284588,-0.070886195,-0.1327226,-0.014139067,-0.017479504,0.04571215,-1.2339413,2.0252979,-6.1133547,0.30230513,0.046308234,167.71822,2.140716,0.316455,0.3954076,0.14532602,0.10595601,inf,inf,inf,inf,1,1,1,1,2,0,2,1,9,1,1,0,0
545146419,545145101,91277367,-3.8268153999999996,-49.6770943,7.38017,1.3118515,-3.7359664,-0.017734911,-0.00094671885,0.0,0.71347046,-1.7662032,-0.0011898478,-0.056633584,-0.014139067,-0.017479504,0.04571215,0.53818464,1.7689328,5.0226245,0.29927078,0.046308234,167.71822,2.1441617,0.30781958,0.3952027,0.1396042,0.10467888,inf,inf,inf,inf,1,1,1,1,2,0,2,1,9,1,1,0,0
545248363,545244314,91277367,-3.8268153999999996,-49.6770943,7.4098754,1.1499058,-3.737707,-0.017734911,-0.00094671885,0.0,0.6573097,-1.5957972,-0.0043423637,-0.054291088,-0.014139067,-0.017479504,0.04571215,0.6390601,1.2368523,-1.4373916,0.29707262,0.046308234,167.71822,2.1459022,0.31635165,0.3968133,0.14371422,0.10603995,inf,inf,inf,inf,1,1,1,1,2,0,2,1,9,1,1,0,0
545347605,545343519,91277367,-3.8268153999999996,-49.6770943,7.438981,1.0006223,-3.737839,-0.017734911,-0.00094671885,0.0,0.60020643,-1.4268976,0.025256893,-0.02167747,-0.014139067,-0.017479504,0.04571215,-0.7449151,1.5690997,-4.236795,0.29754588,0.046308234,167.71822,2.1460342,0.30770838,0.39408892,0.13781057,0.104486,inf,inf,inf,inf,1,1,1,1,2,0,2,1,9,1,1,0,0
545443856,545442729,91277367,-3.8268153999999996,-49.6770943,7.4645123,0.86350375,-3.7292347,-0.017734911,-0.00094671885,0.0,0.5470317,-1.2745742,0.07198829,0.03327953,-0.014139067,-0.017479504,0.04571215,-0.58835286,0.66698885,2.5374365,0.3007735,0.046308234,167.71822,2.1374302,0.31622514,0.39569163,0.14176436,0.1058546,inf,inf,inf,inf,1,1,1,1,2,0,2,1,9,1,1,0,0
545547744,545546448,91277367,-3.8268153999999996,-49.6770943,7.4925194,0.7319749,-3.7222462,-0.017734911,-0.00094671885,0.0,0.49299812,-1.1178447,0.042477496,0.007884565,-0.014139067,-0.017479504,0.04571215,-2.0705602,1.260563,-11.61275,0.30315438,0.046308234,167.71822,2.1304417,0.30758214,0.39298537,0.13657863,0.10433075,inf,inf,inf,inf,1,1,1,1,2,0,2,1,9,1,1,0,0
545646908,545645657,91277367,-3.8268153999999996,-49.6770943,7.516525,0.61539143,-3.720426,-0.017734911,-0.00094671885,0.0,0.45713997,-0.9844367,0.08182316,0.046513427,-0.014139067,-0.017479504,0.04571215,0.939566,1.0029168,8.839567,0.3038026,0.046308234,167.71822,2.1286216,0.31608126,0.39711106,0.14075106,0.1059835,inf,inf,inf,inf,1,1,1,1,2,0,2,1,9,1,1,0,0
545748777,545744866,91277367,-3.8268153999999996,-49.6770943,7.533716,0.51558673,-3.7317328,-0.017734911,-0.00094671885,0.0,0.41225925,-0.8528124,0.026233498,-0.021267839,-0.014139067,-0.017479504,0.04571215,-1.4567333,3.7768068,-4.142018,0.30653238,0.046308234,167.71822,2.1399283,0.3075574,0.3943942,0.1361223,0.10448698,inf,inf,inf,inf,1,1,1,1,2,0,2,1,9,1,1,0,0
545848326,545844075,91277367,-3.8268153999999996,-49.6770943,7.5468645,0.43014112,-3.747412,-0.017734911,-0.00094671885,0.0,0.38623402,-0.7564009,0.041031104,-0.01999645,-0.014139067,-0.017479504,0.04571215,0.22227913,-0.28012392,10.021509,0.3071099,0.046308234,167.71822,2.1556072,0.3160549,0.39600244,0.14056654,0.105888136,inf,inf,inf,inf,1,1,1,1,2,0,2,1,9,1,1,0,0
545944409,545943285,91277367,-3.8268153999999996,-49.6770943,7.5567746,0.35739163,-3.761286,-0.017734911,-0.00094671885,0.0,0.3542595,-0.6525839,0.016565619,-0.05407653,-0.014139067,-0.017479504,0.04571215,-0.72753394,1.7906934,-0.5300791,0.30718192,0.046308234,167.71822,2.1694813,0.30751306,0.3932938,0.13579743,0.1044093,inf,inf,inf,inf,1,1,1,1,2,0,2,1,9,1,1,0,0
546048289,546047004,91277367,-3.8268153999999996,-49.6770943,7.5668116,0.29325172,-3.7701368,-0.017734911,-0.00094671885,0.0,0.34254658,-0.5568868,0.05121641,-0.024114622,-0.014139067,-0.017479504,0.04571215,-0.31889597,0.47953236,-0.51780057,0.30593714,0.046308234,167.71822,2.1783323,0.31601036,0.39489418,0.14034063,0.10581996,inf,inf,inf,inf,1,1,1,1,2,0,2,1,9,1,1,0,0
546147324,546146213,91277367,-3.8268153999999996,-49.6770943,7.577376,0.23753935,-3.7751646,-0.017734911,-0.00094671885,0.0,0.34971818,-0.4599353,0.042426255,-0.035285328,-0.014139067,-0.017479504,0.04571215,-0.8974048,2.9336598,-9.407243,0.30178514,0.046308234,167.71822,2.18336,0.30744982,0.39470455,0.13559937,0.10461587,inf,inf,inf,inf,1,1,1,1,2,0,2,1,9,1,1,0,0
546246591,546245430,91277367,-3.8268153999999996,-49.6770943,7.5925307,0.18800813,-3.7761633,-0.017734911,-0.00094671885,0.0,0.38356516,-0.37732667,0.06431403,-0.012623172,-0.014139067,-0.017479504,0.04571215,-0.09204196,1.4867727,2.450863,0.2974566,0.046308234,167.71822,2.1843586,0.31593913,0.39632833,0.14018752,0.10604131,inf,inf,inf,inf,1,1,1,1,2,0,2,1,9,1,1,0,0
546348601,546344631,91277367,-3.8268153999999996,-49.6770943,7.6182547,0.14969184,-3.7752316,-0.017734911,-0.00094671885,0.0,0.4245934,-0.29718533,0.060881425,-0.014063134,-0.014139067,-0.017479504,0.04571215,0.33713496,2.3207726,-9.624128,0.2965815,0.046308234,167.71822,2.1834269,0.30736083,0.39361694,0.13564064,0.10456745,inf,inf,inf,inf,1,1,1,1,2,0,2,1,9,1,1,0,0
546447969,546443847,91277367,-3.8268153999999996,-49.6770943,7.6533895,0.12073273,-3.7703443,-0.017734911,-0.00094671885,0.0,0.46467525,-0.22851753,0.108062595,0.036843985,-0.014139067,-0.017479504,0.04571215,0.6756273,1.1725053,5.086574,0.29706934,0.046308234,167.71822,2.1785398,0.31584582,0.39522475,0.14031209,0.105991036,inf,inf,inf,inf,1,1,1,1,2,0,2,1,9,1,1,0,0
546544169,546543050,91277367,-3.8268153999999996,-49.6770943,7.6880198,0.102675684,-3.760132,-0.017734911,-0.00094671885,0.0,0.49121395,-0.17576705,0.10998827,0.045244344,-0.014139067,-0.017479504,0.04571215,-0.50962293,-0.60441196,-3.668489,0.29706815,0.046308234,167.71822,2.1683273,0.30725715,0.39503005,0.13547824,0.10478487,inf,inf,inf,inf,1,1,1,1,2,0,2,1,9,1,1,0,0
546647902,546646769,91277367,-3.8268153999999996,-49.6770943,7.725279,0.09183998,-3.7515087,-0.017734911,-0.00094671885,0.0,0.5096832,-0.13637683,0.12071407,0.059051745,-0.014139067,-0.017479504,0.04571215,0.23626155,-0.9776626,-4.8721337,0.29702312,0.046308234,167.71822,2.1597042,0.31573814,0.3966615,0.14014627,0.10621965,inf,inf,inf,inf,1,1,1,1,2,0,2,1,9,1,1,0,0
546747150,546745978,91277367,-3.8268153999999996,-49.6770943,7.761509,0.08292775,-3.742532,-0.017734911,-0.00094671885,0.0,0.5080751,-0.10845794,0.10012093,0.04215065,-0.014139067,-0.017479504,0.04571215,-0.03650926,1.3031669,-7.255296,0.29719853,0.046308234,167.71822,2.1507273,0.30719098,0.39394698,0.13545491,0.10474205,inf,inf,inf,inf,1,1,1,1,2,0,2,1,9,1,1,0,0
546846392,546845187,91277367,-3.8268153999999996,-49.6770943,7.797127,0.0739865,-3.7320523,-0.017734911,-0.00094671885,0.0,0.47514537,-0.10119641,0.093588226,0.041355044,-0.014139067,-0.017479504,0.04571215,-0.7765307,-0.47594082,-5.876932,0.29814276,0.046308234,167.71822,2.1402478,0.31567445,0.39556274,0.14021935,0.10617181,inf,inf,inf,inf,1,1,1,1,2,0,2,1,9,1,1,0,0
546948610,546944397,91277367,-3.8268153999999996,-49.6770943,7.8265314,0.07041342,-3.7220266,-0.017734911,-0.00094671885,0.0,0.38835287,-0.09297217,0.07163017,0.026159713,-0.014139067,-0.017479504,0.04571215,-0.8415661,-0.6486048,0.46134534,0.30033448,0.046308234,167.71822,2.1302218,0.3070804,0.39285582,0.13588938,0.10468747,inf,inf,inf,inf,1,1,1,1,2,0,2,1,9,1,1,0,0
547044732,547043611,91277367,-3.8268153999999996,-49.6770943,7.8457556,0.07111379,-3.715549,-0.017734911,-0.00094671885,0.0,0.26120812,-0.071858324,0.06824595,0.026513515,-0.014139067,-0.017479504,0.04571215,-2.7539368,-0.32524475,-3.6449747,0.30272627,0.046308234,167.71822,2.1237445,0.3155724,0.3970022,0.14035933,0.106380396,inf,inf,inf,inf,1,1,1,1,2,0,2,1,9,1,1,0,0
547143950,547142815,91277367,-3.8268153999999996,-49.6770943,7.8523197,0.07204527,-3.7067258,-0.017734911,-0.00094671885,0.0,0.13936716,-0.03907884,0.08915207,0.052156698,-0.014139067,-0.017479504,0.04571215,-0.8003589,2.0941641,1.9311854,0.3015616,0.046308234,167.71822,2.114921,0.30694216,0.39427608,0.13585603,0.10487501,inf,inf,inf,inf,1,1,1,1,2,0,2,1,9,1,1,0,0
547247684,547246534,91277367,-3.8268153999999996,-49.6770943,7.8491716,0.07306536,-3.696318,-0.017734911,-0.00094671885,0.0,0.05250661,-0.02451674,0.06915898,0.037475564,-0.014139067,-0.017479504,0.04571215,-0.23461004,1.5412254,0.06995904,0.29695034,0.046308234,167.71822,2.1045132,0.31543913,0.39590684,0.14037612,0.106288165,inf,inf,inf,inf,1,1,1,1,2,0,2,1,9,1,1,0,0
547346887,547345743,91277367,-3.8268153999999996,-49.6770943,7.846011,0.07368061,-3.6876276,-0.017734911,-0.00094671885,0.0,0.040319446,-0.028997922,0.0523313,0.02699025,-0.014139067,-0.017479504,0.04571215,1.2375693,-0.29959172,7.3894496,0.295463,0.046308234,167.71822,2.0958228,0.3068128,0.39319667,0.13590342,0.104791716,inf,inf,inf,inf,1,1,1,1,2,0,2,1,9,1,1,0,0
547449245,547444952,91277367,-3.8268153999999996,-49.6770943,7.8481307,0.072304234,-3.688107,-0.017734911,-0.00094671885,0.0,0.066893384,-0.038459715,-0.0027812426,-0.026451,-0.014139067,-0.017479504,0.04571215,-0.05872105,1.5384976,10.86962,0.29438394,0.046308234,167.71822,2.0963025,0.31531373,0.39481047,0.14082555,0.10621773,inf,inf,inf,inf,1,1,1,1,2,0,2,1,9,1,1,0,0
547545293,547544162,91277367,-3.8268153999999996,-49.6770943,7.8613234,0.071109824,-3.6876347,-0.017734911,-0.00094671885,0.0,0.10962927,-0.052959636,-0.021622278,-0.03998196,-0.014139067,-0.017479504,0.04571215,-0.32459757,-1.9093554,1.9803561,0.2936225,0.046308234,167.71822,2.09583,0.306704,0.39461714,0.13611804,0.10499517,inf,inf,inf,inf,1,1,1,1,2,0,2,1,9,1,1,0,0
547644508,547643377,91277367,-3.8268153999999996,-49.6770943,7.8833604,0.06995223,-3.6869318,-0.017734911,-0.00094671885,0.0,0.1413212,-0.047754,-0.046345815,-0.0591381,-0.014139067,-0.017479504,0.04571215,-0.7515513,-0.8356975,-0.9884289,0.2934544,0.046308234,167.71822,2.095127,0.31522232,0.3962546,0.14088917,0.106428325,inf,inf,inf,inf,1,1,1,1,2,0,2,1,9,1,1,0,0
547743705,547742582,91277367,-3.8268153999999996,-49.6770943,7.902312,0.071058124,-3.6897886,-0.017734911,-0.00094671885,0.0,0.15555021,-0.040929236,-0.023070036,-0.033876434,-0.014139067,-0.017479504,0.04571215,-0.8560356,0.09369377,7.4219904,0.2944438,0.046308234,167.71822,2.0979838,0.30662,0.39354086,0.13602817,0.1049333,inf,inf,inf,inf,1,1,1,1,2,0,2,1,9,1,1,0,0
547847601,547846311,91277367,-3.8268153999999996,-49.6770943,7.919527,0.07351075,-3.6900399,-0.017734911,-0.00094671885,0.0,0.16547126,-0.035486054,-0.0056333505,-0.012222567,-0.014139067,-0.017479504,0.04571215,1.1429522,-0.6345471,9.87721,0.2959613,0.046308234,167.71822,2.0982351,0.31514272,0.39516205,0.14069542,0.106361166,inf,inf,inf,inf,1,1,1,1,2,0,2,1,9,1,1,0,0
547946869,547945508,91277367,-3.8268153999999996,-49.6770943,7.933903,0.076589786,-3.6907947,-0.017734911,-0.00094671885,0.0,0.15222172,-0.027253684,-0.036603514,-0.040469233,-0.014139067,-0.017479504,0.04571215,-0.44238797,0.7657575,-2.8615606,0.2966663,0.046308234,167.71822,2.09899,0.3064678,0.39494807,0.13580807,0.10511445,inf,inf,inf,inf,1,1,1,1,2,0,2,1,9,1,1,0,0
548046325,548044718,91277367,-3.8268153999999996,-49.6770943,7.944877,0.08037627,-3.6885505,-0.017734911,-0.00094671885,0.0,0.14039217,-0.026202306,-0.010497947,-0.009686177,-0.014139067,-0.017479504,0.04571215,0.7029999,0.48838902,8.857958,0.29705566,0.046308234,167.71822,2.096746,0.31498277,0.3966003,0.14077367,0.10655076,inf,inf,inf,inf,1,1,1,1,2,0,2,1,9,1,1,0,0
548145038,548143927,91277367,-3.8268153999999996,-49.6770943,7.955543,0.08331668,-3.689726,-0.017734911,-0.00094671885,0.0,0.12545404,-0.02638011,-0.010011402,-0.009058281,-0.014139067,-0.017479504,0.04571215,0.29733515,-0.077341005,-1.0746474,0.29780632,0.046308234,167.71822,2.0979214,0.30630973,0.39386833,0.13581176,0.105031975,inf,inf,inf,inf,1,1,1,1,2,0,2,1,9,1,1,0,0
548244307,548243136,91277367,-3.8268153999999996,-49.6770943,7.9654255,0.08585826,-3.6859615,-0.017734911,-0.00094671885,0.0,0.10669167,-0.020158479,-0.01785831,-0.0119028995,-0.014139067,-0.017479504,0.04571215,0.6124596,2.2420037,4.6718197,0.2984572,0.046308234,167.71822,2.0941567,0.31481937,0.395503,0.14053644,0.106461585,inf,inf,inf,inf,1,1,1,1,2,0,2,1,9,1,1,0,0
548343619,548342346,91277367,-3.8268153999999996,-49.6770943,7.9742103,0.08691234,-3.6805081,-0.017734911,-0.00094671885,0.0,0.08645032,-0.032801535,0.0055837436,0.017614447,-0.014139067,-0.017479504,0.04571215,1.5535702,-0.35596305,9.392214,0.2989968,0.046308234,167.71822,2.0887036,0.30624563,0.3927943,0.13576148,0.10495783,inf,inf,inf,inf,1,1,1,1,2,0,2,1,9,1,1,0,0
548447191,548446064,91277367,-3.8268153999999996,-49.6770943,7.9817047,0.08595402,-3.678827,-0.017734911,-0.00094671885,0.0,0.04956356,-0.043751255,-0.021739397,-0.009525279,-0.014139067,-0.017479504,0.04571215,-2.3271322,-0.66494966,-7.6981754,0.29838398,0.046308234,167.71822,2.0870223,0.31475958,0.39694917,0.14036359,0.106656834,inf,inf,inf,inf,1,1,1,1,2,0,2,1,9,1,1,0,0
548546710,548545274,91277367,-3.8268153999999996,-49.6770943,7.9844823,0.084979415,-3.6744545,-0.017734911,-0.00094671885,0.0,0.025125794,-0.055895492,0.036252275,0.048471887,-0.014139067,-0.017479504,0.04571215,-0.7671357,-1.1007042,4.0558333,0.2968643,0.046308234,167.71822,2.0826497,0.30613184,0.3942128,0.13567112,0.10514291,inf,inf,inf,inf,1,1,1,1,2,0,2,1,9,1,1,0,0
548645847,548644483,91277367,-3.8268153999999996,-49.6770943,7.98389,0.08330968,-3.6679487,-0.017734911,-0.00094671885,0.0,0.0012753844,-0.06962828,0.033610016,0.046296928,-0.014139067,-0.017479504,0.04571215,-0.8803837,-1.8034415,-3.9380026,0.29467055,0.046308234,167.71822,2.0761442,0.31464094,0.3958534,0.14012156,0.10657275,inf,inf,inf,inf,1,1,1,1,2,0,2,1,9,1,1,0,0
548744819,548743692,91277367,-3.8268153999999996,-49.6770943,7.9819264,0.081923686,-3.6623788,-0.017734911,-0.00094671885,0.0,-0.01511137,-0.06589578,0.040533863,0.05235202,-0.014139067,-0.017479504,0.04571215,-0.04554099,1.5132345,1.8706294,0.29268134,0.046308234,167.71822,2.0705743,0.30594334,0.3931345,0.13544239,0.10504891,inf,inf,inf,inf,1,1,1,1,2,0,2,1,9,1,1,0,0
548844041,548842902,91277367,-3.8268153999999996,-49.6770943,7.979022,0.08180594,-3.6548028,-0.017734911,-0.00094671885,0.0,-0.020023586,-0.0652603,0.06588242,0.079472594,-0.014139067,-0.017479504,0.04571215,1.0216783,0.32510778,11.352183,0.2902989,0.046308234,167.71822,2.0629983,0.314443,0.39730078,0.13989902,0.10675009,inf,inf,inf,inf,1,1,1,1,2,0,2,1,9,1,1,0,0
548947755,548946620,91277367,-3.8268153999999996,-49.6770943,7.975172,0.08255651,-3.6473088,-0.017734911,-0.00094671885,0.0,-0.020951794,-0.06271757,0.013484608,0.030443214,-0.014139067,-0.017479504,0.04571215,0.5827814,-1.5202606,0.2284581,0.2886156,0.046308234,167.71822,2.0555043,0.30584812,0.39455298,0.13546199,0.10522963,inf,inf,inf,inf,1,1,1,1,2,0,2,1,9,1,1,0,0
549047194,549045830,91277367,-3.8268153999999996,-49.6770943,7.971775,0.083978005,-3.6449475,-0.017734911,-0.00094671885,0.0,-0.021112598,-0.054291155,-0.03428388,-0.016529556,-0.014139067,-0.017479504,0.04571215,-0.49797636,1.0069808,-3.2839153,0.28838998,0.046308234,167.71822,2.053143,0.31435487,0.39620662,0.14027648,0.10666293,inf,inf,inf,inf,1,1,1,1,2,0,2,1,9,1,1,0,0
549146460,549145039,91277367,-3.8268153999999996,-49.6770943,7.970666,0.085175894,-3.6434414,-0.017734911,-0.00094671885,0.0,-0.008165453,-0.060267743,-0.061369352,-0.04088314,-0.014139067,-0.017479504,0.04571215,-0.055473436,-1.0827779,-10.036797,0.28694353,0.046308234,167.71822,2.0516367,0.3056894,0.3934763,0.13557646,0.10513248,inf,inf,inf,inf,1,1,1,1,2,0,2,1,9,1,1,0,0
549245855,549244249,91277367,-3.8268153999999996,-49.6770943,7.9719734,0.08701985,-3.640147,-0.017734911,-0.00094671885,0.0,0.003875841,-0.05166972,-0.054201886,-0.028122796,-0.014139067,-0.017479504,0.04571215,1.2645131,0.24986899,0.9815149,0.28461146,0.046308234,167.71822,2.0483422,0.31420004,0.39510322,0.14032136,0.106557235,inf,inf,inf,inf,1,1,1,1,2,0,2,1,9,1,1,0,0
549344694,549343458,91277367,-3.8268153999999996,-49.6770943,7.971977,0.088529505,-3.6363015,-0.017734911,-0.00094671885,0.0,0.007551299,-0.05434024,-0.07056425,-0.038007226,-0.014139067,-0.017479504,0.04571215,-0.3674528,-0.26282242,-5.462114,0.28180444,0.046308234,167.71822,2.044497,0.30554935,0.39488786,0.13553397,0.10529431,inf,inf,inf,inf,1,1,1,1,2,0,2,1,9,1,1,0,0
549443786,549442667,91277367,-3.8268153999999996,-49.6770943,7.9706593,0.09016847,-3.6379132,-0.017734911,-0.00094671885,0.0,0.018895043,-0.05068733,-0.05512738,-0.0207316,-0.014139067,-0.017479504,0.04571215,0.9690591,-0.11729916,9.898366,0.2779717,0.046308234,167.71822,2.0461087,0.314058,0.3965448,0.14022377,0.10672775,inf,inf,inf,inf,1,1,1,1,2,0,2,1,9,1,1,0,0
549547748,549546389,91277367,-3.8268153999999996,-49.6770943,7.97186,0.091436155,-3.6495678,-0.017734911,-0.00094671885,0.0,0.032014947,-0.045594066,-0.07454762,-0.04537395,-0.014139067,-0.017479504,0.04571215,1.3092257,1.2974358,14.609046,0.2736513,0.046308234,167.71822,2.057763,0.30549985,0.39381132,0.13563462,0.10520603,inf,inf,inf,inf,1,1,1,1,2,0,2,1,9,1,1,0,0
549647047,549645595,91277367,-3.8268153999999996,-49.6770943,7.974946,0.09204419,-3.6650076,-0.017734911,-0.00094671885,0.0,0.033975102,-0.054236654,-0.17641754,-0.15366603,-0.014139067,-0.017479504,0.04571215,-1.7794607,0.96355397,-10.949031,0.26887056,0.046308234,167.71822,2.073203,0.31401896,0.39545068,0.14009735,0.10663381,inf,inf,inf,inf,1,1,1,1,2,0,2,1,9,1,1,0,0
549746217,549744805,91277367,-3.8268153999999996,-49.6770943,7.980395,0.094236374,-3.6804185,-0.017734911,-0.00094671885,0.0,0.061101496,-0.056118976,-0.12189043,-0.103976175,-0.014139067,-0.017479504,0.04571215,2.0325966,-0.6302835,0.624466,0.26521376,0.046308234,167.71822,2.088614,0.30545557,0.3952378,0.13567993,0.10537972,inf,inf,inf,inf,1,1,1,1,2,0,2,1,9,1,1,0,0
549845245,549844014,91277367,-3.8268153999999996,-49.6770943,7.9885817,0.09711715,-3.6970224,-0.017734911,-0.00094671885,0.0,0.07495148,-0.053507812,-0.17021564,-0.15763126,-0.014139067,-0.017479504,0.04571215,-0.3571527,1.4535505,-2.6523845,0.2621038,0.046308234,167.71822,2.105218,0.31398174,0.39689937,0.1404719,0.10681364,inf,inf,inf,inf,1,1,1,1,2,0,2,1,9,1,1,0,0
549944342,549943223,91277367,-3.8268153999999996,-49.6770943,7.997698,0.09834848,-3.7168539,-0.017734911,-0.00094671885,0.0,0.09854843,-0.06282079,-0.10870698,-0.104375124,-0.014139067,-0.017479504,0.04571215,0.037363376,0.3914323,8.233334,0.25872755,0.046308234,167.71822,2.125049,0.3053709,0.3941475,0.13539128,0.10527176,inf,inf,inf,inf,1,1,1,1,2,0,2,1,9,1,1,0,0
550043547,550042432,91277367,-3.8268153999999996,-49.6770943,8.0072365,0.09804231,-3.7320092,-0.017734911,-0.00094671885,0.0,0.10756143,-0.062076285,-0.14551815,-0.14513983,-0.014139067,-0.017479504,0.04571215,-0.81428945,-0.34223047,-9.695786,0.23162569,0.046308234,167.71822,2.1402044,0.3138898,0.39579883,0.14010434,0.10670219,inf,inf,inf,inf,1,1,1,1,2,0,2,1,9,1,1,0,0
550147621,550146151,91277367,-3.8268153999999996,-49.6770943,8.015702,0.1003463,-3.7458632,-0.017734911,-0.00094671885,0.0,0.12703443,-0.05261116,-0.026114965,-0.031638708,-0.014139067,-0.017479504,0.04571215,1.5048591,1.3998364,3.4652545,0.22281046,0.046308234,167.71822,2.1540585,0.3053469,0.39307895,0.13528924,0.10517933,inf,inf,inf,inf,1,1,1,1,2,0,2,1,9,1,1,0,0
550246696,550245360,91277367,-3.8268153999999996,-49.6770943,8.022926,0.10396344,-3.7521174,-0.017734911,-0.00094671885,0.0,0.12621696,-0.06234723,0.05756941,0.045380086,-0.014139067,-0.017479504,0.04571215,-0.65817595,-1.4312946,-14.061263,0.22136126,0.046308234,167.71822,2.1603127,0.3138621,0.39724642,0.13959566,0.10687853,inf,inf,inf,inf,1,1,1,1,2,0,2,1,9,1,1,0,0
550345927,550344570,91277367,-3.8268153999999996,-49.6770943,8.031276,0.107809514,-3.7426972,-0.017734911,-0.00094671885,0.0,0.12991947,-0.06418022,0.27108693,0.25397512,-0.014139067,-0.017479504,0.04571215,-1.0457188,1.5292981,10.709538,0.22071962,0.046308234,167.71822,2.1508927,0.30530313,0.39449906,0.1349527,0.10534714,inf,inf,inf,inf,1,1,1,1,2,0,2,1,9,1,1,0,0
550444985,550443779,91277367,-3.8268153999999996,-49.6770943,8.041091,0.11054389,-3.7156715,-0.017734911,-0.00094671885,0.0,0.14183234,-0.08312795,0.43112323,0.4084442,-0.014139067,-0.017479504,0.04571215,0.517488,-0.46714678,-5.7943406,0.22130479,0.046308234,167.71822,2.123867,0.31378755,0.39615422,0.13872787,0.10677768,inf,inf,inf,inf,1,1,1,1,2,0,2,1,9,1,1,0,0
550544103,550542988,91277367,-3.8268153999999996,-49.6770943,8.045972,0.112012155,-3.672183,-0.017734911,-0.00094671885,0.0,0.140019,-0.080401935,0.6348938,0.6030947,-0.014139067,-0.017479504,0.04571215,-1.5820199,4.0030265,8.450746,0.22066098,0.046308234,167.71822,2.0803785,0.3052484,0.393423,0.1333943,0.10524923,inf,inf,inf,inf,1,1,1,1,2,0,2,1,9,1,1,0,0
550634395,550633179,91277367,-3.8268153999999996,-49.6770943,8.047537,0.11241705,-3.620895,-0.017734911,-0.00094671885,0.0,0.14143872,-0.09059975,0.75606227,0.7143095,-0.014139067,-0.017479504,0.04571215,-1.1339903,-0.50006235,1.7832237,0.22084036,0.046308234,167.71822,2.0290904,0.3128164,0.3969224,0.13693742,0.1067516,inf,inf,inf,inf,1,1,1,1,2,0,2,1,9,1,1,0,0
550747370,550745916,91277367,-3.8268153999999996,-49.6770943,8.051425,0.10934024,-3.5508754,-0.017734911,-0.00094671885,0.0,0.14448024,-0.08457963,0.8033075,0.74395734,-0.014139067,-0.017479504,0.04571215,-1.6339494,-3.0527596,-21.334213,0.2190406,0.046308234,167.71822,1.9590708,0.30511802,0.39484224,0.13244972,0.105412625,inf,inf,inf,inf,1,1,1,1,2,0,2,1,9,1,1,0,0
550846472,550845125,91277367,-3.8268153999999996,-49.6770943,8.055818,0.104731366,-3.491389,-0.017734911,-0.00094671885,0.0,0.14723684,-0.07572965,0.77751094,0.70180815,-0.014139067,-0.017479504,0.04571215,0.23871769,-2.6413767,-16.532988,0.21751326,0.046308234,167.71822,1.8995844,0.3135143,0.39650077,0.13666618,0.10684359,inf,inf,inf,inf,1,1,1,1,2,0,2,1,9,1,1,0,0
550945456,550944335,91277367,-3.8268153999999996,-49.6770943,8.064936,0.1006232,-3.4341917,-0.017734911,-0.00094671885,0.0,0.13675709,-0.060306046,0.74940515,0.6617928,-0.014139067,-0.017479504,0.04571215,-0.777955,-2.0114517,-10.446559,0.2201456,0.046308234,167.71822,1.8423871,0.3048137,0.39375192,0.13255171,0.10529583,inf,inf,inf,inf,1,1,1,1,2,0,2,1,9,1,1,0,0
551044706,551043550,91277367,-3.8268153999999996,-49.6770943,8.078344,0.0973947,-3.374958,-0.017734911,-0.00094671885,0.0,0.12967595,-0.05547449,0.7733846,0.6782297,-0.014139067,-0.017479504,0.04571215,-0.5049752,-0.7507201,1.3636466,0.22840695,0.046308234,167.71822,1.7831534,0.3132111,0.39539966,0.13709243,0.10672268,inf,inf,inf,inf,1,1,1,1,2,0,2,1,9,1,1,0,0
551143902,551142753,91277367,-3.8268153999999996,-49.6770943,8.090038,0.095346674,-3.3085558,-0.017734911,-0.00094671885,0.0,0.12031426,-0.054053307,0.821199,0.7241178,-0.014139067,-0.017479504,0.04571215,0.75870955,0.09967922,-0.16112009,0.23953888,0.046308234,167.71822,1.7167512,0.30458054,0.39518648,0.13277061,0.10546031,inf,inf,inf,inf,1,1,1,1,2,0,2,1,9,1,1,0,0
551247812,551246472,91277367,-3.8268153999999996,-49.6770943,8.099833,0.092484474,-3.2350109,-0.017734911,-0.00094671885,0.0,0.0931619,-0.065171584,0.82831687,0.7316574,-0.014139067,-0.017479504,0.04571215,0.7393352,-0.50071,8.530649,0.25583997,0.046308234,167.71822,1.6432062,0.3129858,0.39684722,0.1372812,0.106889695,inf,inf,inf,inf,1,1,1,1,2,0,2,1,9,1,1,0,0
551347021,551345681,91277367,-3.8268153999999996,-49.6770943,8.108043,0.09066582,-3.1563754,-0.017734911,-0.00094671885,0.0,0.07379915,-0.074293055,0.8514158,0.7604885,-0.014139067,-0.017479504,0.04571215,-0.76782054,-1.1617365,-5.8428683,0.2779769,0.046308234,167.71822,1.5645708,0.30427617,0.39409626,0.13284308,0.105339535,inf,inf,inf,inf,1,1,1,1,2,0,2,1,9,1,1,0,0
551446009,551444890,91277367,-3.8268153999999996,-49.6770943,8.11557,0.08876773,-3.071629,-0.017734911,-0.00094671885,0.0,0.05973425,-0.09055872,0.918741,0.8352455,-0.014139067,-0.017479504,0.04571215,1.6176933,2.5215669,11.322732,0.295194,0.046308234,167.71822,1.4798244,0.31267378,0.39574596,0.13726205,0.1067652,inf,inf,inf,inf,1,1,1,1,2,0,2,1,9,1,1,0,0
551545366,551544100,91277367,-3.8268153999999996,-49.6770943,8.117527,0.08262809,-2.985226,-0.017734911,-0.00094671885,0.0,0.045950584,-0.10593105,0.9276236,0.8497236,-0.014139067,-0.017479504,0.04571215,0.9579506,1.9848776,12.888494,0.30356345,0.046308234,167.71822,1.3934213,0.30398497,0.3930122,0.132844,0.10521953,inf,inf,inf,inf,1,1,1,1,2,0,2,1,9,1,1,0,0
551644516,551643309,91277367,-3.8268153999999996,-49.6770943,8.112826,0.072782606,-2.9027147,-0.017734911,-0.00094671885,0.0,0.01599912,-0.12599514,0.881083,0.8054473,-0.014139067,-0.017479504,0.04571215,-0.51294684,-0.8692656,1.6361393,0.30238205,0.046308234,167.71822,1.3109101,0.31237483,0.39718398,0.1371424,0.10691706,inf,inf,inf,inf,1,1,1,1,2,0,2,1,9,1,1,0,0
551743864,551742525,91277367,-3.8268153999999996,-49.6770943,8.108212,0.06495836,-2.8241043,-0.017734911,-0.00094671885,0.0,-0.005219063,-0.123069815,0.82012635,0.74557453,-0.014139067,-0.017479504,0.04571215,-0.5906883,-0.594742,-3.2975357,0.2922152,0.046308234,167.71822,1.2322997,0.30376792,0.39443862,0.13297804,0.10538132,inf,inf,inf,inf,1,1,1,1,2,0,2,1,9,1,1,0,0
551847592,551846244,91277367,-3.8268153999999996,-49.6770943,8.102925,0.059447873,-2.7525928,-0.017734911,-0.00094671885,0.0,-0.035982244,-0.10291276,0.7556202,0.679502,-0.014139067,-0.017479504,0.04571215,-0.38055626,0.54222035,-1.0686826,0.27986988,0.046308234,167.71822,1.1607882,0.3121729,0.39609027,0.13781309,0.10680747,inf,inf,inf,inf,1,1,1,1,2,0,2,1,9,1,1,0,0
551946915,551945446,91277367,-3.8268153999999996,-49.6770943,8.091552,0.053100757,-2.687009,-0.017734911,-0.00094671885,0.0,-0.06867561,-0.10284232,0.7021748,0.6265394,-0.014139067,-0.017479504,0.04571215,-1.7318307,0.2345631,-15.62979,0.2695846,0.046308234,167.71822,1.0952045,0.3035208,0.39335304,0.13371189,0.10527218,inf,inf,inf,inf,1,1,1,1,2,0,2,1,9,1,1,0,0
552046043,552044655,91277367,-3.8268153999999996,-49.6770943,8.074387,0.046068244,-2.6161873,-0.017734911,-0.00094671885,0.0,-0.11465714,-0.08949928,0.74093103,0.67157304,-0.014139067,-0.017479504,0.04571215,-1.2169787,0.22706798,2.9544535,0.2592847,0.046308234,167.71822,1.0243827,0.3119519,0.39499432,0.13855734,0.10669439,inf,inf,inf,inf,1,1,1,1,2,0,2,1,9,1,1,0,0
552144997,552143864,91277367,-3.8268153999999996,-49.6770943,8.054066,0.044074826,-2.5412867,-0.017734911,-0.00094671885,0.0,-0.14556997,-0.058011543,0.7545545,0.6929708,-0.014139067,-0.017479504,0.04571215,-0.5840035,-0.175111,-4.75878,0.25401807,0.046308234,167.71822,0.9494821,0.3032281,0.39477938,0.13394034,0.105418645,inf,inf,inf,inf,1,1,1,1,2,0,2,1,9,1,1,0,0
552244342,552243073,91277367,-3.8268153999999996,-49.6770943,8.03154,0.04856348,-2.462631,-0.017734911,-0.00094671885,0.0,-0.1664886,-0.026044177,0.72815895,0.6765986,-0.014139067,-0.017479504,0.04571215,-1.5457407,3.1302931,-6.3856916,0.25449154,0.046308234,167.71822,0.87082636,0.31165943,0.3964326,0.13838151,0.10684489,inf,inf,inf,inf,1,1,1,1,2,0,2,1,9,1,1,0,0
552348201,552346794,91277367,-3.8268153999999996,-49.6770943,8.011587,0.059631035,-2.3891344,-0.017734911,-0.00094671885,0.0,-0.18533717,0.011090462,0.5960214,0.5538212,-0.014139067,-0.017479504,0.04571215,0.06586365,0.38517,9.498251,0.2595966,0.046308234,167.71822,0.7973298,0.3030219,0.39369375,0.1341601,0.10530847,inf,inf,inf,inf,1,1,1,1,2,0,2,1,9,1,1,0,0
552447464,552446001,91277367,-3.8268153999999996,-49.6770943,7.9972844,0.07962874,-2.3849962,-0.017734911,-0.00094671885,0.0,-0.13720354,0.097263835,-0.41264457,-0.44558865,-0.014139067,-0.017479504,0.04571215,-5.074575,1.8182561,-10.081827,0.2686006,0.046308234,167.71822,0.79319155,0.31147316,0.3953365,0.1390472,0.10673167,inf,inf,inf,inf,1,1,1,1,2,0,2,1,9,1,1,0,0
552546392,552545210,91277367,-3.8268153999999996,-49.6770943,7.9833536,0.10122855,-2.3915946,-0.017734911,-0.00094671885,0.0,-0.15120238,0.081954956,-0.25184688,-0.25264776,-0.014139067,-0.017479504,0.04571215,-0.5417757,0.5135601,5.585435,0.27447897,0.046308234,167.71822,0.79979,0.3027265,0.3951132,0.13807373,0.10491697,inf,inf,inf,inf,1,1,1,1,2,0,2,1,9,1,1,0,0
552645562,552644421,91277367,-3.8268153999999996,-49.6770943,7.9678197,0.12052622,-2.3670225,-0.017734911,-0.00094671885,0.0,-0.1608304,0.068181776,0.06571293,0.09874267,-0.014139067,-0.017479504,0.04571215,0.4551106,-1.1418387,3.6999645,0.272157,0.046308234,167.71822,0.7752179,0.31132704,0.39672935,0.1429285,0.104966044,inf,inf,inf,inf,1,1,1,1,2,0,2,1,9,1,1,0,0
552744766,552743629,91277367,-3.8268153999999996,-49.6770943,7.951771,0.13528952,-2.318611,-0.017734911,-0.00094671885,0.0,-0.15166514,0.063575104,0.30167276,0.35703352,-0.014139067,-0.017479504,0.04571215,1.1696192,-0.16115923,-12.480216,0.26916948,0.046308234,167.71822,0.7268063,0.30257854,0.3940311,0.13689074,0.102265045,inf,inf,inf,inf,1,1,1,1,2,0,2,1,9,1,1,0,0
552844241,552842838,91277367,-3.8268153999999996,-49.6770943,7.943549,0.15456866,-2.2934344,-0.017734911,-0.00094671885,0.0,-0.06218957,0.11898595,-0.15159717,-0.077567294,-0.014139067,-0.017479504,0.04571215,0.94559836,-1.2061162,0.17695373,0.27789378,0.046308234,167.71822,0.70162976,0.31110668,0.3955229,0.14083534,0.1023276,inf,inf,inf,inf,1,1,1,1,2,0,2,1,9,1,1,0,0
552947891,552946557,91277367,-3.8268153999999996,-49.6770943,7.9352093,0.1692266,-2.2723246,-0.017734911,-0.00094671885,0.0,-0.06390737,0.0050984337,0.03564013,0.12649581,-0.014139067,-0.017479504,0.04571215,1.6252342,-1.1906394,1.2604772,0.28643006,0.046308234,167.71822,0.68051994,0.30243853,0.3953741,0.13798924,0.10010522,inf,inf,inf,inf,1,1,1,1,2,0,2,1,9,1,1,0,0
553047097,553045766,91277367,-3.8268153999999996,-49.6770943,7.9261165,0.17698917,-2.2544408,-0.017734911,-0.00094671885,0.0,-0.0705462,0.0042765215,-0.05801397,0.04450074,-0.014139067,-0.017479504,0.04571215,0.7180727,1.0882045,-3.5447285,0.28320685,0.046308234,167.71822,0.66263616,0.31101626,0.39678425,0.14251488,0.10019258,inf,inf,inf,inf,1,1,1,1,2,0,2,1,9,1,1,0,0
553146110,553144982,91277367,-3.8268153999999996,-49.6770943,7.9144263,0.18641426,-2.2366846,-0.017734911,-0.00094671885,0.0,-0.069420084,0.03453914,-0.007418014,0.10412167,-0.014139067,-0.017479504,0.04571215,-0.27943435,1.8934267,8.700795,0.27760178,0.046308234,167.71822,0.64487994,0.3023524,0.39415312,0.13840991,0.097927,inf,inf,inf,inf,1,1,1,1,2,0,2,1,9,1,1,0,0
553245293,553244184,91277367,-3.8268153999999996,-49.6770943,7.9030867,0.1943536,-2.2209017,-0.017734911,-0.00094671885,0.0,-0.07209569,0.011015383,-0.048479043,0.06911672,-0.014139067,-0.017479504,0.04571215,0.65835685,-0.053770088,0.8933295,0.28044716,0.046308234,167.71822,0.6290971,0.31094128,0.39545187,0.14355895,0.09812129,inf,inf,inf,inf,1,1,1,1,2,0,2,1,9,1,1,0,0
553344999,553343393,91277367,-3.8268153999999996,-49.6770943,7.891693,0.2043966,-2.2051399,-0.017734911,-0.00094671885,0.0,-0.06950056,0.010697039,-0.055707734,0.06750425,-0.014139067,-0.017479504,0.04571215,-0.023883939,-2.2320578,-3.3887513,0.27936962,0.046308234,167.71822,0.61333525,0.30218732,0.3928633,0.13885966,0.096099414,inf,inf,inf,inf,1,1,1,1,2,0,2,1,9,1,1,0,0
553434743,553433592,91277367,-3.8268153999999996,-49.6770943,7.8807626,0.21784037,-2.1949487,-0.017734911,-0.00094671885,0.0,-0.067977116,0.009171352,-0.026448674,0.097213686,-0.014139067,-0.017479504,0.04571215,-0.7585316,-1.9177945,3.073996,0.2794275,0.046308234,167.71822,0.60314405,0.30990002,0.3959676,0.1438248,0.09658531,inf,inf,inf,inf,1,1,1,1,2,0,2,1,9,1,1,0,0
553547658,553546321,91277367,-3.8268153999999996,-49.6770943,7.8673024,0.2333602,-2.18713,-0.017734911,-0.00094671885,0.0,-0.058140006,0.02044459,-0.03455068,0.08522401,-0.014139067,-0.017479504,0.04571215,1.6550827,0.09229732,-0.84945214,0.27951086,0.046308234,167.71822,0.59532535,0.30212486,0.3940161,0.13968875,0.09486661,inf,inf,inf,inf,1,1,1,1,2,0,2,1,9,1,1,0,0
553646782,553645530,91277367,-3.8268153999999996,-49.6770943,7.855617,0.24626099,-2.175973,-0.017734911,-0.00094671885,0.0,-0.057632614,0.016317973,-0.020257434,0.09990058,-0.014139067,-0.017479504,0.04571215,0.36922693,-1.4838114,-1.0229027,0.2791322,0.046308234,167.71822,0.5841683,0.31074604,0.39515373,0.14514278,0.09529383,inf,inf,inf,inf,1,1,1,1,2,0,2,1,9,1,1,0,0
553745893,553744739,91277367,-3.8268153999999996,-49.6770943,7.8438115,0.25857514,-2.1692069,-0.017734911,-0.00094671885,0.0,-0.054665696,0.020721804,-0.026818886,0.08944346,-0.014139067,-0.017479504,0.04571215,-1.325812,0.7099133,2.1216733,0.2787064,0.046308234,167.71822,0.57740223,0.30204654,0.39263082,0.1407309,0.09368666,inf,inf,inf,inf,1,1,1,1,2,0,2,1,9,1,1,0,0
553845256,553843947,91277367,-3.8268153999999996,-49.6770943,7.832278,0.26978406,-2.1659305,-0.017734911,-0.00094671885,0.0,-0.050326087,0.011774721,-0.028110476,0.08113682,-0.014139067,-0.017479504,0.04571215,-0.32653823,-1.0553161,2.6752682,0.27842215,0.046308234,167.71822,0.5741259,0.3106909,0.39368132,0.14616913,0.09422128,inf,inf,inf,inf,1,1,1,1,2,0,2,1,9,1,1,0,0
553944482,553943156,91277367,-3.8268153999999996,-49.6770943,7.82145,0.28258684,-2.1652846,-0.017734911,-0.00094671885,0.0,-0.044804905,0.009284422,-0.013785405,0.08647172,-0.014139067,-0.017479504,0.04571215,0.71879405,-1.0127957,-1.468298,0.27906373,0.046308234,167.71822,0.1,0.30198812,0.39368057,0.1412083,0.093024485,inf,inf,inf,inf,1,1,1,1,2,0,2,1,9,1,1,1,0
554043810,554042365,91277367,-3.8268153999999996,-49.6770943,7.811739,0.2959288,-2.1644843,-0.017734911,-0.00094671885,0.0,-0.037835054,0.010851085,-0.014703297,0.07764398,-0.014139067,-0.017479504,0.04571215,0.42348182,-0.05400487,4.2705455,0.27859542,0.046308234,167.71822,0.1,0.3106553,0.3946798,0.14623517,0.09366769,inf,inf,inf,inf,1,1,1,1,2,0,2,1,9,1,1,1,0
554147176,554146084,91277367,-3.8268153999999996,-49.6770943,7.801355,0.309931,-2.167106,-0.017734911,-0.00094671885,0.0,-0.039522298,0.015026744,-0.019327238,0.06262331,-0.014139067,-0.017479504,0.04571215,-0.873572,-2.036595,-1.6565623,0.2783122,0.046308234,167.71822,0.1,0.30195183,0.39221928,0.14103872,0.0923688,inf,inf,inf,inf,1,1,1,1,2,0,2,1,9,1,1,1,0
554246514,554245293,91277367,-3.8268153999999996,-49.6770943,7.79121,0.3234584,-2.168874,-0.017734911,-0.00094671885,0.0,-0.039579164,0.022466846,-0.008532553,0.064740375,-0.014139067,-0.017479504,0.04571215,-0.6302658,0.33119386,2.4229097,0.27857065,0.046308234,167.71822,0.1,0.3106383,0.39314905,0.14606386,0.09310984,inf,inf,inf,inf,1,1,1,1,2,0,2,1,9,1,1,1,0
554345668,554344502,91277367,-3.8268153999999996,-49.6770943,7.782315,0.3371242,-2.170099,-0.017734911,-0.00094671885,0.0,-0.037928868,0.03070835,-0.0148201315,0.05135162,-0.014139067,-0.017479504,0.04571215,-0.04563271,4.0456877,3.5532563,0.27806747,0.046308234,167.71822,0.1,0.3019493,0.3931916,0.1411604,0.09216716,inf,inf,inf,inf,1,1,1,1,2,0,2,1,9,1,1,1,0
554445055,554443714,91277367,-3.8268153999999996,-49.6770943,7.77469,0.35015392,-2.1711695,-0.017734911,-0.00094671885,0.0,-0.032823242,0.024201306,-0.016919047,0.043209348,-0.014139067,-0.017479504,0.04571215,-0.41332826,1.990068,3.5731473,0.27805772,0.046308234,167.71822,0.1,0.31065354,0.3940932,0.14605373,0.09300769,inf,inf,inf,inf,1,1,1,1,2,0,2,1,9,1,1,1,0
554544206,554542919,91277367,-3.8268153999999996,-49.6770943,7.7674365,0.36409277,-2.173646,-0.017734911,-0.00094671885,0.0,-0.021357393,0.01391388,-0.014140939,0.039256107,-0.014139067,-0.017479504,0.04571215,1.7582293,2.7551332,3.869982,0.2783851,0.046308234,167.71822,0.1,0.30196103,0.3916762,0.14087972,0.09193082,inf,inf,inf,inf,1,1,1,1,2,0,2,1,9,1,1,1,0
554647981,554646637,91277367,-3.8268153999999996,-49.6770943,7.7608175,0.37814435,-2.1769202,-0.017734911,-0.00094671885,0.0,-0.013272292,0.012432419,0.0011986243,0.04784119,-0.014139067,-0.017479504,0.04571215,2.4899907,2.4641721,7.861431,0.2784928,0.046308234,167.71822,0.1,0.3106814,0.39252645,0.14593513,0.092857055,inf,inf,inf,inf,1,1,1,1,2,0,2,1,9,1,1,1,0
554747098,554745854,91277367,-3.8268153999999996,-49.6770943,7.753747,0.39225376,-2.1802957,-0.017734911,-0.00094671885,0.0,-0.018518986,0.009037184,-0.040904615,-0.00048852834,-0.014139067,-0.017479504,0.04571215,1.1237963,-0.59448624,-9.758334,0.27825361,0.046308234,167.71822,0.1,0.30200645,0.39015958,0.14074807,0.09187086,inf,inf,inf,inf,1,1,1,1,2,0,2,1,9,1,1,1,0
554846135,554845055,91277367,-3.8268153999999996,-49.6770943,7.746549,0.40603432,-2.1835115,-0.017734911,-0.00094671885,0.0,-0.020136833,0.017227702,-0.004454187,0.030643273,-0.014139067,-0.017479504,0.04571215,-0.20424217,-0.17224528,3.6326962,0.27811185,0.046308234,167.71822,0.1,0.31073946,0.39343747,0.14593996,0.09310301,inf,inf,inf,inf,1,1,1,1,2,0,2,1,9,1,1,1,0
554945839,554944267,91277367,-3.8268153999999996,-49.6770943,7.7401752,0.41988155,-2.1907783,-0.017734911,-0.00094671885,0.0,-0.005522727,0.009704422,-0.01160774,0.01495135,-0.014139067,-0.017479504,0.04571215,0.5000264,0.21036482,0.6767646,0.27777842,0.046308234,167.71822,0.1,0.30197027,0.39107376,0.14064579,0.09217108,inf,inf,inf,inf,1,1,1,1,2,0,2,1,9,1,1,1,0
555044788,555043473,91277367,-3.8268153999999996,-49.6770943,7.734171,0.43503508,-2.196485,-0.017734911,-0.00094671885,0.0,-0.010217271,0.01865491,-0.0071318676,0.013370482,-0.014139067,-0.017479504,0.04571215,2.7471473,-0.1607115,5.2603784,0.27819186,0.046308234,167.71822,0.1,0.3107041,0.3918705,0.14564542,0.093254305,inf,inf,inf,inf,1,1,1,1,2,0,2,1,9,1,1,1,0
555144044,555142682,91277367,-3.8268153999999996,-49.6770943,7.728263,0.44912896,-2.200882,-0.017734911,-0.00094671885,0.0,-0.01252936,0.013815201,-0.030218305,-0.013871833,-0.014139067,-0.017479504,0.04571215,-1.5099547,0.0032847328,-4.552403,0.2776643,0.046308234,167.71822,0.1,0.30193257,0.38955358,0.14031269,0.092380784,inf,inf,inf,inf,1,1,1,1,2,0,2,1,9,1,1,1,0
555247534,555246400,91277367,-3.8268153999999996,-49.6770943,7.7217417,0.46340895,-2.2044613,-0.017734911,-0.00094671885,0.0,-0.006183533,0.010654094,-0.029968549,-0.01631698,-0.014139067,-0.017479504,0.04571215,-0.794231,-0.43438292,3.419807,0.27772254,0.046308234,167.71822,0.1,0.31066397,0.39278197,0.1452642,0.09374901,inf,inf,inf,inf,1,1,1,1,2,0,2,1,9,1,1,1,0
555346696,555345609,91277367,-3.8268153999999996,-49.6770943,7.7159095,0.47730932,-2.2078865,-0.017734911,-0.00094671885,0.0,-0.007742231,0.023643617,-0.013589201,-0.002371319,-0.014139067,-0.017479504,0.04571215,0.61085325,-1.008514,3.5156238,0.27758467,0.046308234,167.71822,0.1,0.30190367,0.39045954,0.13996664,0.092908286,inf,inf,inf,inf,1,1,1,1,2,0,2,1,9,1,1,1,0
555445950,555444818,91277367,-3.8268153999999996,-49.6770943,7.7103286,0.49198547,-2.212374,-0.017734911,-0.00094671885,0.0,-0.0033741335,0.02028261,-0.009702329,-0.0015637791,-0.014139067,-0.017479504,0.04571215,-1.4646066,2.486468,4.979932,0.27764818,0.046308234,167.71822,0.1,0.3106325,0.39124155,0.14505874,0.094123125,inf,inf,inf,inf,1,1,1,1,2,0,2,1,9,1,1,1,0
555545338,555544029,91277367,-3.8268153999999996,-49.6770943,7.705132,0.5065863,-2.2161484,-0.017734911,-0.00094671885,0.0,0.0067051244,0.0067576393,-0.05340029,-0.04732194,-0.014139067,-0.017479504,0.04571215,0.14575905,-3.408848,-11.083118,0.27719837,0.046308234,167.71822,0.1,0.3018801,0.38895565,0.13982108,0.09331189,inf,inf,inf,inf,1,1,1,1,2,0,2,1,9,1,1,1,0
555644699,555643235,91277367,-3.8268153999999996,-49.6770943,7.69986,0.5220918,-2.2199717,-0.017734911,-0.00094671885,0.0,0.0063667363,0.034048714,-0.008878229,-0.0046945494,-0.014139067,-0.017479504,0.04571215,2.198688,0.8855208,-1.825436,0.2774583,0.046308234,167.71822,0.1,0.310605,0.38972718,0.14452852,0.09457915,inf,inf,inf,inf,1,1,1,1,2,0,2,1,9,1,1,1,0
555743555,555742444,91277367,-3.8268153999999996,-49.6770943,7.694282,0.5379122,-2.2240572,-0.017734911,-0.00094671885,0.0,0.00061064673,0.018643513,-0.012966117,-0.010684618,-0.014139067,-0.017479504,0.04571215,0.15831986,1.8995069,3.9862235,0.27741292,0.046308234,167.71822,0.1,0.30193454,0.38988754,0.13954693,0.094002515,inf,inf,inf,inf,1,1,1,1,2,0,2,1,9,1,1,1,0
